"success","timeout","failed_images","failed_audio","failed_video","typeoftrial","subject","trial_type","trial_index","time_elapsed","internal_node_id","run_id","condition","recorded_at","source_code_version","ip","user_agent","device","browser","browser_version","platform","platform_version","rt","response","Experiment","stimulus","subject_id","trialcondition","list_number","correct","question_order"
"true","false","[]","[]","[]","preload","81199","preload","0","11657","0.0-0.0","4","1","2022-11-11 20:56:30","5e9f10ee8cf4e9417ddb2c8afee766bf","139.140.208.169","Mozilla/5.0 (Macintosh; Intel Mac OS X 10_15_7) AppleWebKit/605.1.15 (KHTML, like Gecko) Version/16.1 Safari/605.1.15","Macintosh","Safari","16.1","OS X","10_15_7","","","","","","","","",""
"","","","","","ID","81199","survey-text","1","21740","0.0-1.0","4","1","2022-11-11 20:56:30","5e9f10ee8cf4e9417ddb2c8afee766bf","139.140.208.169","Mozilla/5.0 (Macintosh; Intel Mac OS X 10_15_7) AppleWebKit/605.1.15 (KHTML, like Gecko) Version/16.1 Safari/605.1.15","Macintosh","Safari","16.1","OS X","10_15_7","10060","{""ID"":""9023124""}","","","","","","",""
"","","","","","instructions","","html-button-response","2","31883","0.0-2.0","4","1","2022-11-11 20:56:30","5e9f10ee8cf4e9417ddb2c8afee766bf","139.140.208.169","Mozilla/5.0 (Macintosh; Intel Mac OS X 10_15_7) AppleWebKit/605.1.15 (KHTML, like Gecko) Version/16.1 Safari/605.1.15","Macintosh","Safari","16.1","OS X","10_15_7","10140","0","","<p> Welcome to the experiment! </p> <p> In this experiment, you will be asked to make judgments about the content of different sentences. On each trial, you will read a sentence, and will be shown a picture immediately following the sentence. Your task is to decide whether the object displayed in the picture was mentioned in the sentence or not and respond as quickly as possible by pressing <strong>A</strong> for yes or <strong>L</strong> for no. </p> <p>You will now do a practice session with feedback and instructions. Click the button below to continue.</p>","81199","","","",""
"","","","","","instructions","81199","html-button-response","3","35354","0.0-3.0","4","1","2022-11-11 20:56:30","5e9f10ee8cf4e9417ddb2c8afee766bf","139.140.208.169","Mozilla/5.0 (Macintosh; Intel Mac OS X 10_15_7) AppleWebKit/605.1.15 (KHTML, like Gecko) Version/16.1 Safari/605.1.15","Macintosh","Safari","16.1","OS X","10_15_7","3469","0","","
            <p style=""font-size:20px;""> You are about to begin the practice test. </p>
            <p style=""font-size:20px;""> On each trial, a sentence will appear on the screen. You should press SPACEBAR when you have read and understood the sentence.</p>
            <p style=""font-size:20px;""> After you press SPACEBAR, a picture will appear on the screen. </p>
            <p style=""font-size:20px;""> You need to indicate whether or not the pictured object was mentioned in the sentence. </p>
            <p style=""font-size:20px;""> If the object WAS mentioned in the preceding sentence, you should press <strong>A</strong> </p>
            <p style=""font-size:20px;""> If the object was NOT mentioned in the preceding sentence, you should press <strong>L</strong>. </p>
            <p style=""font-size:20px;""> Click the button below to continue to the practice session.</p>
            ","","","","",""
"","","","","","fixation","81199","html-keyboard-response","4","36357","0.0-4.0-0.0","4","1","2022-11-11 20:56:30","5e9f10ee8cf4e9417ddb2c8afee766bf","139.140.208.169","Mozilla/5.0 (Macintosh; Intel Mac OS X 10_15_7) AppleWebKit/605.1.15 (KHTML, like Gecko) Version/16.1 Safari/605.1.15","Macintosh","Safari","16.1","OS X","10_15_7","null","null","","<p style=""font-size : 48px"">+</p>","","practice","","",""
"","","","","","sentence","81199","html-keyboard-response","5","38413","0.0-4.0-1.0","4","1","2022-11-11 20:56:30","5e9f10ee8cf4e9417ddb2c8afee766bf","139.140.208.169","Mozilla/5.0 (Macintosh; Intel Mac OS X 10_15_7) AppleWebKit/605.1.15 (KHTML, like Gecko) Version/16.1 Safari/605.1.15","Macintosh","Safari","16.1","OS X","10_15_7","2054"," ","","You look at a leaf.","","practice","","",""
"","","","","","fixation","81199","html-keyboard-response","6","38917","0.0-4.0-2.0","4","1","2022-11-11 20:56:30","5e9f10ee8cf4e9417ddb2c8afee766bf","139.140.208.169","Mozilla/5.0 (Macintosh; Intel Mac OS X 10_15_7) AppleWebKit/605.1.15 (KHTML, like Gecko) Version/16.1 Safari/605.1.15","Macintosh","Safari","16.1","OS X","10_15_7","null","null","","<p style=""font-size : 48px"">+</p>","","practice","","",""
"","","","","","picture","81199","image-keyboard-response","7","39947","0.0-4.0-3.0","4","1","2022-11-11 20:56:30","5e9f10ee8cf4e9417ddb2c8afee766bf","139.140.208.169","Mozilla/5.0 (Macintosh; Intel Mac OS X 10_15_7) AppleWebKit/605.1.15 (KHTML, like Gecko) Version/16.1 Safari/605.1.15","Macintosh","Safari","16.1","OS X","10_15_7","905","a","","leaf.jpeg","","practice","","true",""
"","","","","","","","html-keyboard-response","8","41952","0.0-4.0-4.0","4","1","2022-11-11 20:56:30","5e9f10ee8cf4e9417ddb2c8afee766bf","139.140.208.169","Mozilla/5.0 (Macintosh; Intel Mac OS X 10_15_7) AppleWebKit/605.1.15 (KHTML, like Gecko) Version/16.1 Safari/605.1.15","Macintosh","Safari","16.1","OS X","10_15_7","null","null","","Correct!","","","","",""
"","","","","","fixation","81199","html-keyboard-response","9","42956","0.0-4.0-0.1","4","1","2022-11-11 20:56:30","5e9f10ee8cf4e9417ddb2c8afee766bf","139.140.208.169","Mozilla/5.0 (Macintosh; Intel Mac OS X 10_15_7) AppleWebKit/605.1.15 (KHTML, like Gecko) Version/16.1 Safari/605.1.15","Macintosh","Safari","16.1","OS X","10_15_7","null","null","","<p style=""font-size : 48px"">+</p>","","practice","","",""
"","","","","","sentence","81199","html-keyboard-response","10","44062","0.0-4.0-1.1","4","1","2022-11-11 20:56:30","5e9f10ee8cf4e9417ddb2c8afee766bf","139.140.208.169","Mozilla/5.0 (Macintosh; Intel Mac OS X 10_15_7) AppleWebKit/605.1.15 (KHTML, like Gecko) Version/16.1 Safari/605.1.15","Macintosh","Safari","16.1","OS X","10_15_7","1104"," ","","You look at chocolate.","","practice","","",""
"","","","","","fixation","81199","html-keyboard-response","11","44567","0.0-4.0-2.1","4","1","2022-11-11 20:56:30","5e9f10ee8cf4e9417ddb2c8afee766bf","139.140.208.169","Mozilla/5.0 (Macintosh; Intel Mac OS X 10_15_7) AppleWebKit/605.1.15 (KHTML, like Gecko) Version/16.1 Safari/605.1.15","Macintosh","Safari","16.1","OS X","10_15_7","null","null","","<p style=""font-size : 48px"">+</p>","","practice","","",""
"","","","","","picture","81199","image-keyboard-response","12","45429","0.0-4.0-3.1","4","1","2022-11-11 20:56:30","5e9f10ee8cf4e9417ddb2c8afee766bf","139.140.208.169","Mozilla/5.0 (Macintosh; Intel Mac OS X 10_15_7) AppleWebKit/605.1.15 (KHTML, like Gecko) Version/16.1 Safari/605.1.15","Macintosh","Safari","16.1","OS X","10_15_7","776","a","","chocolate.jpeg","","practice","","true",""
"","","","","","","","html-keyboard-response","13","47433","0.0-4.0-4.1","4","1","2022-11-11 20:56:30","5e9f10ee8cf4e9417ddb2c8afee766bf","139.140.208.169","Mozilla/5.0 (Macintosh; Intel Mac OS X 10_15_7) AppleWebKit/605.1.15 (KHTML, like Gecko) Version/16.1 Safari/605.1.15","Macintosh","Safari","16.1","OS X","10_15_7","null","null","","Correct!","","","","",""
"","","","","","fixation","81199","html-keyboard-response","14","48437","0.0-4.0-0.2","4","1","2022-11-11 20:56:30","5e9f10ee8cf4e9417ddb2c8afee766bf","139.140.208.169","Mozilla/5.0 (Macintosh; Intel Mac OS X 10_15_7) AppleWebKit/605.1.15 (KHTML, like Gecko) Version/16.1 Safari/605.1.15","Macintosh","Safari","16.1","OS X","10_15_7","null","null","","<p style=""font-size : 48px"">+</p>","","practice","","",""
"","","","","","sentence","81199","html-keyboard-response","15","48980","0.0-4.0-1.2","4","1","2022-11-11 20:56:30","5e9f10ee8cf4e9417ddb2c8afee766bf","139.140.208.169","Mozilla/5.0 (Macintosh; Intel Mac OS X 10_15_7) AppleWebKit/605.1.15 (KHTML, like Gecko) Version/16.1 Safari/605.1.15","Macintosh","Safari","16.1","OS X","10_15_7","540"," ","","You look at ice cream.","","practice","","",""
"","","","","","fixation","81199","html-keyboard-response","16","49484","0.0-4.0-2.2","4","1","2022-11-11 20:56:30","5e9f10ee8cf4e9417ddb2c8afee766bf","139.140.208.169","Mozilla/5.0 (Macintosh; Intel Mac OS X 10_15_7) AppleWebKit/605.1.15 (KHTML, like Gecko) Version/16.1 Safari/605.1.15","Macintosh","Safari","16.1","OS X","10_15_7","null","null","","<p style=""font-size : 48px"">+</p>","","practice","","",""
"","","","","","picture","81199","image-keyboard-response","17","50172","0.0-4.0-3.2","4","1","2022-11-11 20:56:30","5e9f10ee8cf4e9417ddb2c8afee766bf","139.140.208.169","Mozilla/5.0 (Macintosh; Intel Mac OS X 10_15_7) AppleWebKit/605.1.15 (KHTML, like Gecko) Version/16.1 Safari/605.1.15","Macintosh","Safari","16.1","OS X","10_15_7","570","a","","icecream.jpeg","","practice","","true",""
"","","","","","","","html-keyboard-response","18","52177","0.0-4.0-4.2","4","1","2022-11-11 20:56:30","5e9f10ee8cf4e9417ddb2c8afee766bf","139.140.208.169","Mozilla/5.0 (Macintosh; Intel Mac OS X 10_15_7) AppleWebKit/605.1.15 (KHTML, like Gecko) Version/16.1 Safari/605.1.15","Macintosh","Safari","16.1","OS X","10_15_7","null","null","","Correct!","","","","",""
"","","","","","fixation","81199","html-keyboard-response","19","53181","0.0-4.0-0.3","4","1","2022-11-11 20:56:30","5e9f10ee8cf4e9417ddb2c8afee766bf","139.140.208.169","Mozilla/5.0 (Macintosh; Intel Mac OS X 10_15_7) AppleWebKit/605.1.15 (KHTML, like Gecko) Version/16.1 Safari/605.1.15","Macintosh","Safari","16.1","OS X","10_15_7","null","null","","<p style=""font-size : 48px"">+</p>","","practice","","",""
"","","","","","sentence","81199","html-keyboard-response","20","53697","0.0-4.0-1.3","4","1","2022-11-11 20:56:30","5e9f10ee8cf4e9417ddb2c8afee766bf","139.140.208.169","Mozilla/5.0 (Macintosh; Intel Mac OS X 10_15_7) AppleWebKit/605.1.15 (KHTML, like Gecko) Version/16.1 Safari/605.1.15","Macintosh","Safari","16.1","OS X","10_15_7","513"," ","","You look at a stapler.","","practice","","",""
"","","","","","fixation","81199","html-keyboard-response","21","54202","0.0-4.0-2.3","4","1","2022-11-11 20:56:30","5e9f10ee8cf4e9417ddb2c8afee766bf","139.140.208.169","Mozilla/5.0 (Macintosh; Intel Mac OS X 10_15_7) AppleWebKit/605.1.15 (KHTML, like Gecko) Version/16.1 Safari/605.1.15","Macintosh","Safari","16.1","OS X","10_15_7","null","null","","<p style=""font-size : 48px"">+</p>","","practice","","",""
"","","","","","picture","81199","image-keyboard-response","22","55009","0.0-4.0-3.3","4","1","2022-11-11 20:56:30","5e9f10ee8cf4e9417ddb2c8afee766bf","139.140.208.169","Mozilla/5.0 (Macintosh; Intel Mac OS X 10_15_7) AppleWebKit/605.1.15 (KHTML, like Gecko) Version/16.1 Safari/605.1.15","Macintosh","Safari","16.1","OS X","10_15_7","763","a","","key.jpeg","","practice","","false",""
"","","","","","","","html-keyboard-response","23","57014","0.0-4.0-4.3","4","1","2022-11-11 20:56:30","5e9f10ee8cf4e9417ddb2c8afee766bf","139.140.208.169","Mozilla/5.0 (Macintosh; Intel Mac OS X 10_15_7) AppleWebKit/605.1.15 (KHTML, like Gecko) Version/16.1 Safari/605.1.15","Macintosh","Safari","16.1","OS X","10_15_7","null","null","","Wrong!","","","","",""
"","","","","","movetoexp","81199","html-button-response","24","62259","0.0-5.0","4","1","2022-11-11 20:56:30","5e9f10ee8cf4e9417ddb2c8afee766bf","139.140.208.169","Mozilla/5.0 (Macintosh; Intel Mac OS X 10_15_7) AppleWebKit/605.1.15 (KHTML, like Gecko) Version/16.1 Safari/605.1.15","Macintosh","Safari","16.1","OS X","10_15_7","5239","0","","<p style=""font-size:20px;"">You have now completed the practice session! </p>
              <p style=""font-size:20px;"">You will now move on to the main experiment, where you will not be provided any feedback. </p>
              <p style=""font-size:20px;"">Remember, you should press <strong>A</strong> if the pictured object was mentioned in the preceding sentence<br> and <strong>L</strong> if the pictured object was not mentioned in the preceding sentence.</p>
              <p style=""font-size:20px;"">For these questions, make sure you are answering A/L based on the content mentioned in the sentence.</p>
              <p style=""font-size:20px;"">Please click the button below to continue to the main experiment. </p>","","","","",""
"","","","","","fixation","81199","html-keyboard-response","25","63263","0.0-6.0-0.0","4","1","2022-11-11 20:56:30","5e9f10ee8cf4e9417ddb2c8afee766bf","139.140.208.169","Mozilla/5.0 (Macintosh; Intel Mac OS X 10_15_7) AppleWebKit/605.1.15 (KHTML, like Gecko) Version/16.1 Safari/605.1.15","Macintosh","Safari","16.1","OS X","10_15_7","null","null","","<p style=""font-size : 48px"">+</p>","","neutral-whole","","",""
"","","","","","sentence","81199","html-keyboard-response","26","64487","0.0-6.0-1.0","4","1","2022-11-11 20:56:30","5e9f10ee8cf4e9417ddb2c8afee766bf","139.140.208.169","Mozilla/5.0 (Macintosh; Intel Mac OS X 10_15_7) AppleWebKit/605.1.15 (KHTML, like Gecko) Version/16.1 Safari/605.1.15","Macintosh","Safari","16.1","OS X","10_15_7","1221"," ","","Someone places a radish in front of you.","","neutral-whole","","",""
"","","","","","fixation","81199","html-keyboard-response","27","64992","0.0-6.0-2.0","4","1","2022-11-11 20:56:30","5e9f10ee8cf4e9417ddb2c8afee766bf","139.140.208.169","Mozilla/5.0 (Macintosh; Intel Mac OS X 10_15_7) AppleWebKit/605.1.15 (KHTML, like Gecko) Version/16.1 Safari/605.1.15","Macintosh","Safari","16.1","OS X","10_15_7","null","null","","<p style=""font-size : 48px"">+</p>","","neutral-whole","","",""
"","","","","","picture","81199","image-keyboard-response","28","65712","0.0-6.0-3.0","4","1","2022-11-11 20:56:30","5e9f10ee8cf4e9417ddb2c8afee766bf","139.140.208.169","Mozilla/5.0 (Macintosh; Intel Mac OS X 10_15_7) AppleWebKit/605.1.15 (KHTML, like Gecko) Version/16.1 Safari/605.1.15","Macintosh","Safari","16.1","OS X","10_15_7","629","a","","radish_whole.jpeg","","neutral-whole","","true",""
"","","","","","fixation","81199","html-keyboard-response","29","66717","0.0-6.0-0.1","4","1","2022-11-11 20:56:30","5e9f10ee8cf4e9417ddb2c8afee766bf","139.140.208.169","Mozilla/5.0 (Macintosh; Intel Mac OS X 10_15_7) AppleWebKit/605.1.15 (KHTML, like Gecko) Version/16.1 Safari/605.1.15","Macintosh","Safari","16.1","OS X","10_15_7","null","null","","<p style=""font-size : 48px"">+</p>","","filler","","",""
"","","","","","sentence","81199","html-keyboard-response","30","67189","0.0-6.0-1.1","4","1","2022-11-11 20:56:30","5e9f10ee8cf4e9417ddb2c8afee766bf","139.140.208.169","Mozilla/5.0 (Macintosh; Intel Mac OS X 10_15_7) AppleWebKit/605.1.15 (KHTML, like Gecko) Version/16.1 Safari/605.1.15","Macintosh","Safari","16.1","OS X","10_15_7","469"," ","","You look at soap.","","filler","","",""
"","","","","","fixation","81199","html-keyboard-response","31","67694","0.0-6.0-2.1","4","1","2022-11-11 20:56:30","5e9f10ee8cf4e9417ddb2c8afee766bf","139.140.208.169","Mozilla/5.0 (Macintosh; Intel Mac OS X 10_15_7) AppleWebKit/605.1.15 (KHTML, like Gecko) Version/16.1 Safari/605.1.15","Macintosh","Safari","16.1","OS X","10_15_7","null","null","","<p style=""font-size : 48px"">+</p>","","filler","","",""
"","","","","","picture","81199","image-keyboard-response","32","68302","0.0-6.0-3.1","4","1","2022-11-11 20:56:30","5e9f10ee8cf4e9417ddb2c8afee766bf","139.140.208.169","Mozilla/5.0 (Macintosh; Intel Mac OS X 10_15_7) AppleWebKit/605.1.15 (KHTML, like Gecko) Version/16.1 Safari/605.1.15","Macintosh","Safari","16.1","OS X","10_15_7","521","a","","soap.jpeg","","filler","","true",""
"","","","","","fixation","81199","html-keyboard-response","33","69306","0.0-6.0-0.2","4","1","2022-11-11 20:56:30","5e9f10ee8cf4e9417ddb2c8afee766bf","139.140.208.169","Mozilla/5.0 (Macintosh; Intel Mac OS X 10_15_7) AppleWebKit/605.1.15 (KHTML, like Gecko) Version/16.1 Safari/605.1.15","Macintosh","Safari","16.1","OS X","10_15_7","null","null","","<p style=""font-size : 48px"">+</p>","","filler","","",""
"","","","","","sentence","81199","html-keyboard-response","34","69659","0.0-6.0-1.2","4","1","2022-11-11 20:56:30","5e9f10ee8cf4e9417ddb2c8afee766bf","139.140.208.169","Mozilla/5.0 (Macintosh; Intel Mac OS X 10_15_7) AppleWebKit/605.1.15 (KHTML, like Gecko) Version/16.1 Safari/605.1.15","Macintosh","Safari","16.1","OS X","10_15_7","349"," ","","You look at some fries.","","filler","","",""
"","","","","","fixation","81199","html-keyboard-response","35","70164","0.0-6.0-2.2","4","1","2022-11-11 20:56:30","5e9f10ee8cf4e9417ddb2c8afee766bf","139.140.208.169","Mozilla/5.0 (Macintosh; Intel Mac OS X 10_15_7) AppleWebKit/605.1.15 (KHTML, like Gecko) Version/16.1 Safari/605.1.15","Macintosh","Safari","16.1","OS X","10_15_7","null","null","","<p style=""font-size : 48px"">+</p>","","filler","","",""
"","","","","","picture","81199","image-keyboard-response","36","70869","0.0-6.0-3.2","4","1","2022-11-11 20:56:30","5e9f10ee8cf4e9417ddb2c8afee766bf","139.140.208.169","Mozilla/5.0 (Macintosh; Intel Mac OS X 10_15_7) AppleWebKit/605.1.15 (KHTML, like Gecko) Version/16.1 Safari/605.1.15","Macintosh","Safari","16.1","OS X","10_15_7","589","l","","croissant.jpeg","","filler","","true",""
"","","","","","fixation","81199","html-keyboard-response","37","71872","0.0-6.0-0.3","4","1","2022-11-11 20:56:30","5e9f10ee8cf4e9417ddb2c8afee766bf","139.140.208.169","Mozilla/5.0 (Macintosh; Intel Mac OS X 10_15_7) AppleWebKit/605.1.15 (KHTML, like Gecko) Version/16.1 Safari/605.1.15","Macintosh","Safari","16.1","OS X","10_15_7","null","null","","<p style=""font-size : 48px"">+</p>","","neutral-slice","","",""
"","","","","","sentence","81199","html-keyboard-response","38","72274","0.0-6.0-1.3","4","1","2022-11-11 20:56:30","5e9f10ee8cf4e9417ddb2c8afee766bf","139.140.208.169","Mozilla/5.0 (Macintosh; Intel Mac OS X 10_15_7) AppleWebKit/605.1.15 (KHTML, like Gecko) Version/16.1 Safari/605.1.15","Macintosh","Safari","16.1","OS X","10_15_7","399"," ","","Someone places a cucumber in front of you.","","neutral-slice","","",""
"","","","","","fixation","81199","html-keyboard-response","39","72778","0.0-6.0-2.3","4","1","2022-11-11 20:56:30","5e9f10ee8cf4e9417ddb2c8afee766bf","139.140.208.169","Mozilla/5.0 (Macintosh; Intel Mac OS X 10_15_7) AppleWebKit/605.1.15 (KHTML, like Gecko) Version/16.1 Safari/605.1.15","Macintosh","Safari","16.1","OS X","10_15_7","null","null","","<p style=""font-size : 48px"">+</p>","","neutral-slice","","",""
"","","","","","picture","81199","image-keyboard-response","40","73434","0.0-6.0-3.3","4","1","2022-11-11 20:56:30","5e9f10ee8cf4e9417ddb2c8afee766bf","139.140.208.169","Mozilla/5.0 (Macintosh; Intel Mac OS X 10_15_7) AppleWebKit/605.1.15 (KHTML, like Gecko) Version/16.1 Safari/605.1.15","Macintosh","Safari","16.1","OS X","10_15_7","539","a","","cucumber_slice.jpeg","","neutral-slice","","true",""
"","","","","","fixation","81199","html-keyboard-response","41","74439","0.0-6.0-0.4","4","1","2022-11-11 20:56:30","5e9f10ee8cf4e9417ddb2c8afee766bf","139.140.208.169","Mozilla/5.0 (Macintosh; Intel Mac OS X 10_15_7) AppleWebKit/605.1.15 (KHTML, like Gecko) Version/16.1 Safari/605.1.15","Macintosh","Safari","16.1","OS X","10_15_7","null","null","","<p style=""font-size : 48px"">+</p>","","filler","","",""
"","","","","","sentence","81199","html-keyboard-response","42","74879","0.0-6.0-1.4","4","1","2022-11-11 20:56:30","5e9f10ee8cf4e9417ddb2c8afee766bf","139.140.208.169","Mozilla/5.0 (Macintosh; Intel Mac OS X 10_15_7) AppleWebKit/605.1.15 (KHTML, like Gecko) Version/16.1 Safari/605.1.15","Macintosh","Safari","16.1","OS X","10_15_7","436"," ","","You look at a tablet.","","filler","","",""
"","","","","","fixation","81199","html-keyboard-response","43","75382","0.0-6.0-2.4","4","1","2022-11-11 20:56:30","5e9f10ee8cf4e9417ddb2c8afee766bf","139.140.208.169","Mozilla/5.0 (Macintosh; Intel Mac OS X 10_15_7) AppleWebKit/605.1.15 (KHTML, like Gecko) Version/16.1 Safari/605.1.15","Macintosh","Safari","16.1","OS X","10_15_7","null","null","","<p style=""font-size : 48px"">+</p>","","filler","","",""
"","","","","","picture","81199","image-keyboard-response","44","76107","0.0-6.0-3.4","4","1","2022-11-11 20:56:30","5e9f10ee8cf4e9417ddb2c8afee766bf","139.140.208.169","Mozilla/5.0 (Macintosh; Intel Mac OS X 10_15_7) AppleWebKit/605.1.15 (KHTML, like Gecko) Version/16.1 Safari/605.1.15","Macintosh","Safari","16.1","OS X","10_15_7","621","a","","tablet.jpeg","","filler","","true",""
"","","","","","fixation","81199","html-keyboard-response","45","77111","0.0-6.0-0.5","4","1","2022-11-11 20:56:30","5e9f10ee8cf4e9417ddb2c8afee766bf","139.140.208.169","Mozilla/5.0 (Macintosh; Intel Mac OS X 10_15_7) AppleWebKit/605.1.15 (KHTML, like Gecko) Version/16.1 Safari/605.1.15","Macintosh","Safari","16.1","OS X","10_15_7","null","null","","<p style=""font-size : 48px"">+</p>","","filler","","",""
"","","","","","sentence","81199","html-keyboard-response","46","77592","0.0-6.0-1.5","4","1","2022-11-11 20:56:30","5e9f10ee8cf4e9417ddb2c8afee766bf","139.140.208.169","Mozilla/5.0 (Macintosh; Intel Mac OS X 10_15_7) AppleWebKit/605.1.15 (KHTML, like Gecko) Version/16.1 Safari/605.1.15","Macintosh","Safari","16.1","OS X","10_15_7","478"," ","","You look at a potato.","","filler","","",""
"","","","","","fixation","81199","html-keyboard-response","47","78096","0.0-6.0-2.5","4","1","2022-11-11 20:56:30","5e9f10ee8cf4e9417ddb2c8afee766bf","139.140.208.169","Mozilla/5.0 (Macintosh; Intel Mac OS X 10_15_7) AppleWebKit/605.1.15 (KHTML, like Gecko) Version/16.1 Safari/605.1.15","Macintosh","Safari","16.1","OS X","10_15_7","null","null","","<p style=""font-size : 48px"">+</p>","","filler","","",""
"","","","","","picture","81199","image-keyboard-response","48","78565","0.0-6.0-3.5","4","1","2022-11-11 20:56:30","5e9f10ee8cf4e9417ddb2c8afee766bf","139.140.208.169","Mozilla/5.0 (Macintosh; Intel Mac OS X 10_15_7) AppleWebKit/605.1.15 (KHTML, like Gecko) Version/16.1 Safari/605.1.15","Macintosh","Safari","16.1","OS X","10_15_7","426","a","","potato.jpeg","","filler","","true",""
"","","","","","fixation","81199","html-keyboard-response","49","79570","0.0-6.0-0.6","4","1","2022-11-11 20:56:30","5e9f10ee8cf4e9417ddb2c8afee766bf","139.140.208.169","Mozilla/5.0 (Macintosh; Intel Mac OS X 10_15_7) AppleWebKit/605.1.15 (KHTML, like Gecko) Version/16.1 Safari/605.1.15","Macintosh","Safari","16.1","OS X","10_15_7","null","null","","<p style=""font-size : 48px"">+</p>","","filler","","",""
"","","","","","sentence","81199","html-keyboard-response","50","79917","0.0-6.0-1.6","4","1","2022-11-11 20:56:30","5e9f10ee8cf4e9417ddb2c8afee766bf","139.140.208.169","Mozilla/5.0 (Macintosh; Intel Mac OS X 10_15_7) AppleWebKit/605.1.15 (KHTML, like Gecko) Version/16.1 Safari/605.1.15","Macintosh","Safari","16.1","OS X","10_15_7","344"," ","","You look at rice.","","filler","","",""
"","","","","","fixation","81199","html-keyboard-response","51","80421","0.0-6.0-2.6","4","1","2022-11-11 20:56:30","5e9f10ee8cf4e9417ddb2c8afee766bf","139.140.208.169","Mozilla/5.0 (Macintosh; Intel Mac OS X 10_15_7) AppleWebKit/605.1.15 (KHTML, like Gecko) Version/16.1 Safari/605.1.15","Macintosh","Safari","16.1","OS X","10_15_7","null","null","","<p style=""font-size : 48px"">+</p>","","filler","","",""
"","","","","","picture","81199","image-keyboard-response","52","80997","0.0-6.0-3.6","4","1","2022-11-11 20:56:30","5e9f10ee8cf4e9417ddb2c8afee766bf","139.140.208.169","Mozilla/5.0 (Macintosh; Intel Mac OS X 10_15_7) AppleWebKit/605.1.15 (KHTML, like Gecko) Version/16.1 Safari/605.1.15","Macintosh","Safari","16.1","OS X","10_15_7","462","l","","cracker.jpeg","","filler","","true",""
"","","","","","fixation","81199","html-keyboard-response","53","82002","0.0-6.0-0.7","4","1","2022-11-11 20:56:30","5e9f10ee8cf4e9417ddb2c8afee766bf","139.140.208.169","Mozilla/5.0 (Macintosh; Intel Mac OS X 10_15_7) AppleWebKit/605.1.15 (KHTML, like Gecko) Version/16.1 Safari/605.1.15","Macintosh","Safari","16.1","OS X","10_15_7","null","null","","<p style=""font-size : 48px"">+</p>","","filler","","",""
"","","","","","sentence","81199","html-keyboard-response","54","82304","0.0-6.0-1.7","4","1","2022-11-11 20:56:30","5e9f10ee8cf4e9417ddb2c8afee766bf","139.140.208.169","Mozilla/5.0 (Macintosh; Intel Mac OS X 10_15_7) AppleWebKit/605.1.15 (KHTML, like Gecko) Version/16.1 Safari/605.1.15","Macintosh","Safari","16.1","OS X","10_15_7","297"," ","","You look at a backpack.","","filler","","",""
"","","","","","fixation","81199","html-keyboard-response","55","82809","0.0-6.0-2.7","4","1","2022-11-11 20:56:30","5e9f10ee8cf4e9417ddb2c8afee766bf","139.140.208.169","Mozilla/5.0 (Macintosh; Intel Mac OS X 10_15_7) AppleWebKit/605.1.15 (KHTML, like Gecko) Version/16.1 Safari/605.1.15","Macintosh","Safari","16.1","OS X","10_15_7","null","null","","<p style=""font-size : 48px"">+</p>","","filler","","",""
"","","","","","picture","81199","image-keyboard-response","56","83382","0.0-6.0-3.7","4","1","2022-11-11 20:56:30","5e9f10ee8cf4e9417ddb2c8afee766bf","139.140.208.169","Mozilla/5.0 (Macintosh; Intel Mac OS X 10_15_7) AppleWebKit/605.1.15 (KHTML, like Gecko) Version/16.1 Safari/605.1.15","Macintosh","Safari","16.1","OS X","10_15_7","497","l","","shoe.jpeg","","filler","","true",""
"","","","","","fixation","81199","html-keyboard-response","57","84386","0.0-6.0-0.8","4","1","2022-11-11 20:56:30","5e9f10ee8cf4e9417ddb2c8afee766bf","139.140.208.169","Mozilla/5.0 (Macintosh; Intel Mac OS X 10_15_7) AppleWebKit/605.1.15 (KHTML, like Gecko) Version/16.1 Safari/605.1.15","Macintosh","Safari","16.1","OS X","10_15_7","null","null","","<p style=""font-size : 48px"">+</p>","","filler","","",""
"","","","","","sentence","81199","html-keyboard-response","58","84737","0.0-6.0-1.8","4","1","2022-11-11 20:56:30","5e9f10ee8cf4e9417ddb2c8afee766bf","139.140.208.169","Mozilla/5.0 (Macintosh; Intel Mac OS X 10_15_7) AppleWebKit/605.1.15 (KHTML, like Gecko) Version/16.1 Safari/605.1.15","Macintosh","Safari","16.1","OS X","10_15_7","343"," ","","You look at a cookie.","","filler","","",""
"","","","","","fixation","81199","html-keyboard-response","59","85242","0.0-6.0-2.8","4","1","2022-11-11 20:56:30","5e9f10ee8cf4e9417ddb2c8afee766bf","139.140.208.169","Mozilla/5.0 (Macintosh; Intel Mac OS X 10_15_7) AppleWebKit/605.1.15 (KHTML, like Gecko) Version/16.1 Safari/605.1.15","Macintosh","Safari","16.1","OS X","10_15_7","null","null","","<p style=""font-size : 48px"">+</p>","","filler","","",""
"","","","","","picture","81199","image-keyboard-response","60","85698","0.0-6.0-3.8","4","1","2022-11-11 20:56:30","5e9f10ee8cf4e9417ddb2c8afee766bf","139.140.208.169","Mozilla/5.0 (Macintosh; Intel Mac OS X 10_15_7) AppleWebKit/605.1.15 (KHTML, like Gecko) Version/16.1 Safari/605.1.15","Macintosh","Safari","16.1","OS X","10_15_7","381","a","","cookie.jpeg","","filler","","true",""
"","","","","","fixation","81199","html-keyboard-response","61","86703","0.0-6.0-0.9","4","1","2022-11-11 20:56:30","5e9f10ee8cf4e9417ddb2c8afee766bf","139.140.208.169","Mozilla/5.0 (Macintosh; Intel Mac OS X 10_15_7) AppleWebKit/605.1.15 (KHTML, like Gecko) Version/16.1 Safari/605.1.15","Macintosh","Safari","16.1","OS X","10_15_7","null","null","","<p style=""font-size : 48px"">+</p>","","filler","","",""
"","","","","","sentence","81199","html-keyboard-response","62","87036","0.0-6.0-1.9","4","1","2022-11-11 20:56:30","5e9f10ee8cf4e9417ddb2c8afee766bf","139.140.208.169","Mozilla/5.0 (Macintosh; Intel Mac OS X 10_15_7) AppleWebKit/605.1.15 (KHTML, like Gecko) Version/16.1 Safari/605.1.15","Macintosh","Safari","16.1","OS X","10_15_7","329"," ","","You look at a granola bar.","","filler","","",""
"","","","","","fixation","81199","html-keyboard-response","63","87541","0.0-6.0-2.9","4","1","2022-11-11 20:56:30","5e9f10ee8cf4e9417ddb2c8afee766bf","139.140.208.169","Mozilla/5.0 (Macintosh; Intel Mac OS X 10_15_7) AppleWebKit/605.1.15 (KHTML, like Gecko) Version/16.1 Safari/605.1.15","Macintosh","Safari","16.1","OS X","10_15_7","null","null","","<p style=""font-size : 48px"">+</p>","","filler","","",""
"","","","","","picture","81199","image-keyboard-response","64","88257","0.0-6.0-3.9","4","1","2022-11-11 20:56:30","5e9f10ee8cf4e9417ddb2c8afee766bf","139.140.208.169","Mozilla/5.0 (Macintosh; Intel Mac OS X 10_15_7) AppleWebKit/605.1.15 (KHTML, like Gecko) Version/16.1 Safari/605.1.15","Macintosh","Safari","16.1","OS X","10_15_7","612","l","","dumpling.jpeg","","filler","","true",""
"","","","","","fixation","81199","html-keyboard-response","65","89262","0.0-6.0-0.10","4","1","2022-11-11 20:56:30","5e9f10ee8cf4e9417ddb2c8afee766bf","139.140.208.169","Mozilla/5.0 (Macintosh; Intel Mac OS X 10_15_7) AppleWebKit/605.1.15 (KHTML, like Gecko) Version/16.1 Safari/605.1.15","Macintosh","Safari","16.1","OS X","10_15_7","null","null","","<p style=""font-size : 48px"">+</p>","","modified-whole","","",""
"","","","","","sentence","81199","html-keyboard-response","66","90330","0.0-6.0-1.10","4","1","2022-11-11 20:56:30","5e9f10ee8cf4e9417ddb2c8afee766bf","139.140.208.169","Mozilla/5.0 (Macintosh; Intel Mac OS X 10_15_7) AppleWebKit/605.1.15 (KHTML, like Gecko) Version/16.1 Safari/605.1.15","Macintosh","Safari","16.1","OS X","10_15_7","1065"," ","","Someone slices a tomato in front of you.","","modified-whole","","",""
"","","","","","fixation","81199","html-keyboard-response","67","90835","0.0-6.0-2.10","4","1","2022-11-11 20:56:30","5e9f10ee8cf4e9417ddb2c8afee766bf","139.140.208.169","Mozilla/5.0 (Macintosh; Intel Mac OS X 10_15_7) AppleWebKit/605.1.15 (KHTML, like Gecko) Version/16.1 Safari/605.1.15","Macintosh","Safari","16.1","OS X","10_15_7","null","null","","<p style=""font-size : 48px"">+</p>","","modified-whole","","",""
"","","","","","picture","81199","image-keyboard-response","68","91440","0.0-6.0-3.10","4","1","2022-11-11 20:56:30","5e9f10ee8cf4e9417ddb2c8afee766bf","139.140.208.169","Mozilla/5.0 (Macintosh; Intel Mac OS X 10_15_7) AppleWebKit/605.1.15 (KHTML, like Gecko) Version/16.1 Safari/605.1.15","Macintosh","Safari","16.1","OS X","10_15_7","440","a","","tomato_whole.jpeg","","modified-whole","","true",""
"","","","","","fixation","81199","html-keyboard-response","69","92444","0.0-6.0-0.11","4","1","2022-11-11 20:56:30","5e9f10ee8cf4e9417ddb2c8afee766bf","139.140.208.169","Mozilla/5.0 (Macintosh; Intel Mac OS X 10_15_7) AppleWebKit/605.1.15 (KHTML, like Gecko) Version/16.1 Safari/605.1.15","Macintosh","Safari","16.1","OS X","10_15_7","null","null","","<p style=""font-size : 48px"">+</p>","","filler","","",""
"","","","","","sentence","81199","html-keyboard-response","70","92994","0.0-6.0-1.11","4","1","2022-11-11 20:56:30","5e9f10ee8cf4e9417ddb2c8afee766bf","139.140.208.169","Mozilla/5.0 (Macintosh; Intel Mac OS X 10_15_7) AppleWebKit/605.1.15 (KHTML, like Gecko) Version/16.1 Safari/605.1.15","Macintosh","Safari","16.1","OS X","10_15_7","546"," ","","You look at a mug.","","filler","","",""
"","","","","","fixation","81199","html-keyboard-response","71","93499","0.0-6.0-2.11","4","1","2022-11-11 20:56:30","5e9f10ee8cf4e9417ddb2c8afee766bf","139.140.208.169","Mozilla/5.0 (Macintosh; Intel Mac OS X 10_15_7) AppleWebKit/605.1.15 (KHTML, like Gecko) Version/16.1 Safari/605.1.15","Macintosh","Safari","16.1","OS X","10_15_7","null","null","","<p style=""font-size : 48px"">+</p>","","filler","","",""
"","","","","","picture","81199","image-keyboard-response","72","94133","0.0-6.0-3.11","4","1","2022-11-11 20:56:30","5e9f10ee8cf4e9417ddb2c8afee766bf","139.140.208.169","Mozilla/5.0 (Macintosh; Intel Mac OS X 10_15_7) AppleWebKit/605.1.15 (KHTML, like Gecko) Version/16.1 Safari/605.1.15","Macintosh","Safari","16.1","OS X","10_15_7","587","a","","mug.jpeg","","filler","","true",""
"","","","","","fixation","81199","html-keyboard-response","73","95138","0.0-6.0-0.12","4","1","2022-11-11 20:56:30","5e9f10ee8cf4e9417ddb2c8afee766bf","139.140.208.169","Mozilla/5.0 (Macintosh; Intel Mac OS X 10_15_7) AppleWebKit/605.1.15 (KHTML, like Gecko) Version/16.1 Safari/605.1.15","Macintosh","Safari","16.1","OS X","10_15_7","null","null","","<p style=""font-size : 48px"">+</p>","","filler","","",""
"","","","","","sentence","81199","html-keyboard-response","74","95585","0.0-6.0-1.12","4","1","2022-11-11 20:56:30","5e9f10ee8cf4e9417ddb2c8afee766bf","139.140.208.169","Mozilla/5.0 (Macintosh; Intel Mac OS X 10_15_7) AppleWebKit/605.1.15 (KHTML, like Gecko) Version/16.1 Safari/605.1.15","Macintosh","Safari","16.1","OS X","10_15_7","443"," ","","You look at sushi.","","filler","","",""
"","","","","","fixation","81199","html-keyboard-response","75","96090","0.0-6.0-2.12","4","1","2022-11-11 20:56:30","5e9f10ee8cf4e9417ddb2c8afee766bf","139.140.208.169","Mozilla/5.0 (Macintosh; Intel Mac OS X 10_15_7) AppleWebKit/605.1.15 (KHTML, like Gecko) Version/16.1 Safari/605.1.15","Macintosh","Safari","16.1","OS X","10_15_7","null","null","","<p style=""font-size : 48px"">+</p>","","filler","","",""
"","","","","","picture","81199","image-keyboard-response","76","96630","0.0-6.0-3.12","4","1","2022-11-11 20:56:30","5e9f10ee8cf4e9417ddb2c8afee766bf","139.140.208.169","Mozilla/5.0 (Macintosh; Intel Mac OS X 10_15_7) AppleWebKit/605.1.15 (KHTML, like Gecko) Version/16.1 Safari/605.1.15","Macintosh","Safari","16.1","OS X","10_15_7","472","l","","pancake.jpeg","","filler","","true",""
"","","","","","fixation","81199","html-keyboard-response","77","97635","0.0-6.0-0.13","4","1","2022-11-11 20:56:30","5e9f10ee8cf4e9417ddb2c8afee766bf","139.140.208.169","Mozilla/5.0 (Macintosh; Intel Mac OS X 10_15_7) AppleWebKit/605.1.15 (KHTML, like Gecko) Version/16.1 Safari/605.1.15","Macintosh","Safari","16.1","OS X","10_15_7","null","null","","<p style=""font-size : 48px"">+</p>","","modified-slice","","",""
"","","","","","sentence","81199","html-keyboard-response","78","98065","0.0-6.0-1.13","4","1","2022-11-11 20:56:30","5e9f10ee8cf4e9417ddb2c8afee766bf","139.140.208.169","Mozilla/5.0 (Macintosh; Intel Mac OS X 10_15_7) AppleWebKit/605.1.15 (KHTML, like Gecko) Version/16.1 Safari/605.1.15","Macintosh","Safari","16.1","OS X","10_15_7","426"," ","","Someone slices a cake in front of you.","","modified-slice","","",""
"","","","","","fixation","81199","html-keyboard-response","79","98569","0.0-6.0-2.13","4","1","2022-11-11 20:56:30","5e9f10ee8cf4e9417ddb2c8afee766bf","139.140.208.169","Mozilla/5.0 (Macintosh; Intel Mac OS X 10_15_7) AppleWebKit/605.1.15 (KHTML, like Gecko) Version/16.1 Safari/605.1.15","Macintosh","Safari","16.1","OS X","10_15_7","null","null","","<p style=""font-size : 48px"">+</p>","","modified-slice","","",""
"","","","","","picture","81199","image-keyboard-response","80","99190","0.0-6.0-3.13","4","1","2022-11-11 20:56:30","5e9f10ee8cf4e9417ddb2c8afee766bf","139.140.208.169","Mozilla/5.0 (Macintosh; Intel Mac OS X 10_15_7) AppleWebKit/605.1.15 (KHTML, like Gecko) Version/16.1 Safari/605.1.15","Macintosh","Safari","16.1","OS X","10_15_7","514","a","","cake_slice.jpeg","","modified-slice","","true",""
"","","","","","fixation","81199","html-keyboard-response","81","100197","0.0-6.0-0.14","4","1","2022-11-11 20:56:30","5e9f10ee8cf4e9417ddb2c8afee766bf","139.140.208.169","Mozilla/5.0 (Macintosh; Intel Mac OS X 10_15_7) AppleWebKit/605.1.15 (KHTML, like Gecko) Version/16.1 Safari/605.1.15","Macintosh","Safari","16.1","OS X","10_15_7","null","null","","<p style=""font-size : 48px"">+</p>","","filler","","",""
"","","","","","sentence","81199","html-keyboard-response","82","100554","0.0-6.0-1.14","4","1","2022-11-11 20:56:30","5e9f10ee8cf4e9417ddb2c8afee766bf","139.140.208.169","Mozilla/5.0 (Macintosh; Intel Mac OS X 10_15_7) AppleWebKit/605.1.15 (KHTML, like Gecko) Version/16.1 Safari/605.1.15","Macintosh","Safari","16.1","OS X","10_15_7","352"," ","","You look at a peanut.","","filler","","",""
"","","","","","fixation","81199","html-keyboard-response","83","101058","0.0-6.0-2.14","4","1","2022-11-11 20:56:30","5e9f10ee8cf4e9417ddb2c8afee766bf","139.140.208.169","Mozilla/5.0 (Macintosh; Intel Mac OS X 10_15_7) AppleWebKit/605.1.15 (KHTML, like Gecko) Version/16.1 Safari/605.1.15","Macintosh","Safari","16.1","OS X","10_15_7","null","null","","<p style=""font-size : 48px"">+</p>","","filler","","",""
"","","","","","picture","81199","image-keyboard-response","84","101595","0.0-6.0-3.14","4","1","2022-11-11 20:56:30","5e9f10ee8cf4e9417ddb2c8afee766bf","139.140.208.169","Mozilla/5.0 (Macintosh; Intel Mac OS X 10_15_7) AppleWebKit/605.1.15 (KHTML, like Gecko) Version/16.1 Safari/605.1.15","Macintosh","Safari","16.1","OS X","10_15_7","410","l","","pretzel.jpeg","","filler","","true",""
"","","","","","fixation","81199","html-keyboard-response","85","102600","0.0-6.0-0.15","4","1","2022-11-11 20:56:30","5e9f10ee8cf4e9417ddb2c8afee766bf","139.140.208.169","Mozilla/5.0 (Macintosh; Intel Mac OS X 10_15_7) AppleWebKit/605.1.15 (KHTML, like Gecko) Version/16.1 Safari/605.1.15","Macintosh","Safari","16.1","OS X","10_15_7","null","null","","<p style=""font-size : 48px"">+</p>","","filler","","",""
"","","","","","sentence","81199","html-keyboard-response","86","102949","0.0-6.0-1.15","4","1","2022-11-11 20:56:30","5e9f10ee8cf4e9417ddb2c8afee766bf","139.140.208.169","Mozilla/5.0 (Macintosh; Intel Mac OS X 10_15_7) AppleWebKit/605.1.15 (KHTML, like Gecko) Version/16.1 Safari/605.1.15","Macintosh","Safari","16.1","OS X","10_15_7","344"," ","","You look at a waffle.","","filler","","",""
"","","","","","fixation","81199","html-keyboard-response","87","103454","0.0-6.0-2.15","4","1","2022-11-11 20:56:30","5e9f10ee8cf4e9417ddb2c8afee766bf","139.140.208.169","Mozilla/5.0 (Macintosh; Intel Mac OS X 10_15_7) AppleWebKit/605.1.15 (KHTML, like Gecko) Version/16.1 Safari/605.1.15","Macintosh","Safari","16.1","OS X","10_15_7","null","null","","<p style=""font-size : 48px"">+</p>","","filler","","",""
"","","","","","picture","81199","image-keyboard-response","88","104061","0.0-6.0-3.15","4","1","2022-11-11 20:56:30","5e9f10ee8cf4e9417ddb2c8afee766bf","139.140.208.169","Mozilla/5.0 (Macintosh; Intel Mac OS X 10_15_7) AppleWebKit/605.1.15 (KHTML, like Gecko) Version/16.1 Safari/605.1.15","Macintosh","Safari","16.1","OS X","10_15_7","518","l","","rice.jpeg","","filler","","true",""
"","","","","","fixation","81199","html-keyboard-response","89","105067","0.0-6.0-0.16","4","1","2022-11-11 20:56:30","5e9f10ee8cf4e9417ddb2c8afee766bf","139.140.208.169","Mozilla/5.0 (Macintosh; Intel Mac OS X 10_15_7) AppleWebKit/605.1.15 (KHTML, like Gecko) Version/16.1 Safari/605.1.15","Macintosh","Safari","16.1","OS X","10_15_7","null","null","","<p style=""font-size : 48px"">+</p>","","filler","","",""
"","","","","","sentence","81199","html-keyboard-response","90","105340","0.0-6.0-1.16","4","1","2022-11-11 20:56:30","5e9f10ee8cf4e9417ddb2c8afee766bf","139.140.208.169","Mozilla/5.0 (Macintosh; Intel Mac OS X 10_15_7) AppleWebKit/605.1.15 (KHTML, like Gecko) Version/16.1 Safari/605.1.15","Macintosh","Safari","16.1","OS X","10_15_7","268"," ","","You look at a croissant.","","filler","","",""
"","","","","","fixation","81199","html-keyboard-response","91","105845","0.0-6.0-2.16","4","1","2022-11-11 20:56:30","5e9f10ee8cf4e9417ddb2c8afee766bf","139.140.208.169","Mozilla/5.0 (Macintosh; Intel Mac OS X 10_15_7) AppleWebKit/605.1.15 (KHTML, like Gecko) Version/16.1 Safari/605.1.15","Macintosh","Safari","16.1","OS X","10_15_7","null","null","","<p style=""font-size : 48px"">+</p>","","filler","","",""
"","","","","","picture","81199","image-keyboard-response","92","106515","0.0-6.0-3.16","4","1","2022-11-11 20:56:30","5e9f10ee8cf4e9417ddb2c8afee766bf","139.140.208.169","Mozilla/5.0 (Macintosh; Intel Mac OS X 10_15_7) AppleWebKit/605.1.15 (KHTML, like Gecko) Version/16.1 Safari/605.1.15","Macintosh","Safari","16.1","OS X","10_15_7","459","l","","burger.jpeg","","filler","","true",""
"","","","","","fixation","81199","html-keyboard-response","93","107521","0.0-6.0-0.17","4","1","2022-11-11 20:56:30","5e9f10ee8cf4e9417ddb2c8afee766bf","139.140.208.169","Mozilla/5.0 (Macintosh; Intel Mac OS X 10_15_7) AppleWebKit/605.1.15 (KHTML, like Gecko) Version/16.1 Safari/605.1.15","Macintosh","Safari","16.1","OS X","10_15_7","null","null","","<p style=""font-size : 48px"">+</p>","","neutral-whole","","",""
"","","","","","sentence","81199","html-keyboard-response","94","107874","0.0-6.0-1.17","4","1","2022-11-11 20:56:30","5e9f10ee8cf4e9417ddb2c8afee766bf","139.140.208.169","Mozilla/5.0 (Macintosh; Intel Mac OS X 10_15_7) AppleWebKit/605.1.15 (KHTML, like Gecko) Version/16.1 Safari/605.1.15","Macintosh","Safari","16.1","OS X","10_15_7","349"," ","","Someone places a pepper in front of you.","","neutral-whole","","",""
"","","","","","fixation","81199","html-keyboard-response","95","108379","0.0-6.0-2.17","4","1","2022-11-11 20:56:30","5e9f10ee8cf4e9417ddb2c8afee766bf","139.140.208.169","Mozilla/5.0 (Macintosh; Intel Mac OS X 10_15_7) AppleWebKit/605.1.15 (KHTML, like Gecko) Version/16.1 Safari/605.1.15","Macintosh","Safari","16.1","OS X","10_15_7","null","null","","<p style=""font-size : 48px"">+</p>","","neutral-whole","","",""
"","","","","","picture","81199","image-keyboard-response","96","108938","0.0-6.0-3.17","4","1","2022-11-11 20:56:30","5e9f10ee8cf4e9417ddb2c8afee766bf","139.140.208.169","Mozilla/5.0 (Macintosh; Intel Mac OS X 10_15_7) AppleWebKit/605.1.15 (KHTML, like Gecko) Version/16.1 Safari/605.1.15","Macintosh","Safari","16.1","OS X","10_15_7","497","a","","pepper_whole.jpeg","","neutral-whole","","true",""
"","","","","","fixation","81199","html-keyboard-response","97","109943","0.0-6.0-0.18","4","1","2022-11-11 20:56:30","5e9f10ee8cf4e9417ddb2c8afee766bf","139.140.208.169","Mozilla/5.0 (Macintosh; Intel Mac OS X 10_15_7) AppleWebKit/605.1.15 (KHTML, like Gecko) Version/16.1 Safari/605.1.15","Macintosh","Safari","16.1","OS X","10_15_7","null","null","","<p style=""font-size : 48px"">+</p>","","filler","","",""
"","","","","","sentence","81199","html-keyboard-response","98","110285","0.0-6.0-1.18","4","1","2022-11-11 20:56:30","5e9f10ee8cf4e9417ddb2c8afee766bf","139.140.208.169","Mozilla/5.0 (Macintosh; Intel Mac OS X 10_15_7) AppleWebKit/605.1.15 (KHTML, like Gecko) Version/16.1 Safari/605.1.15","Macintosh","Safari","16.1","OS X","10_15_7","337"," ","","You look at ketchup.","","filler","","",""
"","","","","","fixation","81199","html-keyboard-response","99","110790","0.0-6.0-2.18","4","1","2022-11-11 20:56:30","5e9f10ee8cf4e9417ddb2c8afee766bf","139.140.208.169","Mozilla/5.0 (Macintosh; Intel Mac OS X 10_15_7) AppleWebKit/605.1.15 (KHTML, like Gecko) Version/16.1 Safari/605.1.15","Macintosh","Safari","16.1","OS X","10_15_7","null","null","","<p style=""font-size : 48px"">+</p>","","filler","","",""
"","","","","","picture","81199","image-keyboard-response","100","111373","0.0-6.0-3.18","4","1","2022-11-11 20:56:30","5e9f10ee8cf4e9417ddb2c8afee766bf","139.140.208.169","Mozilla/5.0 (Macintosh; Intel Mac OS X 10_15_7) AppleWebKit/605.1.15 (KHTML, like Gecko) Version/16.1 Safari/605.1.15","Macintosh","Safari","16.1","OS X","10_15_7","484","a","","ketchup.jpeg","","filler","","true",""
"","","","","","fixation","81199","html-keyboard-response","101","112380","0.0-6.0-0.19","4","1","2022-11-11 20:56:30","5e9f10ee8cf4e9417ddb2c8afee766bf","139.140.208.169","Mozilla/5.0 (Macintosh; Intel Mac OS X 10_15_7) AppleWebKit/605.1.15 (KHTML, like Gecko) Version/16.1 Safari/605.1.15","Macintosh","Safari","16.1","OS X","10_15_7","null","null","","<p style=""font-size : 48px"">+</p>","","filler","","",""
"","","","","","sentence","81199","html-keyboard-response","102","112701","0.0-6.0-1.19","4","1","2022-11-11 20:56:30","5e9f10ee8cf4e9417ddb2c8afee766bf","139.140.208.169","Mozilla/5.0 (Macintosh; Intel Mac OS X 10_15_7) AppleWebKit/605.1.15 (KHTML, like Gecko) Version/16.1 Safari/605.1.15","Macintosh","Safari","16.1","OS X","10_15_7","317"," ","","You look at a plate.","","filler","","",""
"","","","","","fixation","81199","html-keyboard-response","103","113206","0.0-6.0-2.19","4","1","2022-11-11 20:56:30","5e9f10ee8cf4e9417ddb2c8afee766bf","139.140.208.169","Mozilla/5.0 (Macintosh; Intel Mac OS X 10_15_7) AppleWebKit/605.1.15 (KHTML, like Gecko) Version/16.1 Safari/605.1.15","Macintosh","Safari","16.1","OS X","10_15_7","null","null","","<p style=""font-size : 48px"">+</p>","","filler","","",""
"","","","","","picture","81199","image-keyboard-response","104","113830","0.0-6.0-3.19","4","1","2022-11-11 20:56:30","5e9f10ee8cf4e9417ddb2c8afee766bf","139.140.208.169","Mozilla/5.0 (Macintosh; Intel Mac OS X 10_15_7) AppleWebKit/605.1.15 (KHTML, like Gecko) Version/16.1 Safari/605.1.15","Macintosh","Safari","16.1","OS X","10_15_7","466","l","","chair.jpeg","","filler","","true",""
"","","","","","fixation","81199","html-keyboard-response","105","114836","0.0-6.0-0.20","4","1","2022-11-11 20:56:30","5e9f10ee8cf4e9417ddb2c8afee766bf","139.140.208.169","Mozilla/5.0 (Macintosh; Intel Mac OS X 10_15_7) AppleWebKit/605.1.15 (KHTML, like Gecko) Version/16.1 Safari/605.1.15","Macintosh","Safari","16.1","OS X","10_15_7","null","null","","<p style=""font-size : 48px"">+</p>","","filler","","",""
"","","","","","sentence","81199","html-keyboard-response","106","115156","0.0-6.0-1.20","4","1","2022-11-11 20:56:30","5e9f10ee8cf4e9417ddb2c8afee766bf","139.140.208.169","Mozilla/5.0 (Macintosh; Intel Mac OS X 10_15_7) AppleWebKit/605.1.15 (KHTML, like Gecko) Version/16.1 Safari/605.1.15","Macintosh","Safari","16.1","OS X","10_15_7","315"," ","","You look at a banana.","","filler","","",""
"","","","","","fixation","81199","html-keyboard-response","107","115661","0.0-6.0-2.20","4","1","2022-11-11 20:56:30","5e9f10ee8cf4e9417ddb2c8afee766bf","139.140.208.169","Mozilla/5.0 (Macintosh; Intel Mac OS X 10_15_7) AppleWebKit/605.1.15 (KHTML, like Gecko) Version/16.1 Safari/605.1.15","Macintosh","Safari","16.1","OS X","10_15_7","null","null","","<p style=""font-size : 48px"">+</p>","","filler","","",""
"","","","","","picture","81199","image-keyboard-response","108","116184","0.0-6.0-3.20","4","1","2022-11-11 20:56:30","5e9f10ee8cf4e9417ddb2c8afee766bf","139.140.208.169","Mozilla/5.0 (Macintosh; Intel Mac OS X 10_15_7) AppleWebKit/605.1.15 (KHTML, like Gecko) Version/16.1 Safari/605.1.15","Macintosh","Safari","16.1","OS X","10_15_7","425","l","","corn.jpeg","","filler","","true",""
"","","","","","fixation","81199","html-keyboard-response","109","117190","0.0-6.0-0.21","4","1","2022-11-11 20:56:30","5e9f10ee8cf4e9417ddb2c8afee766bf","139.140.208.169","Mozilla/5.0 (Macintosh; Intel Mac OS X 10_15_7) AppleWebKit/605.1.15 (KHTML, like Gecko) Version/16.1 Safari/605.1.15","Macintosh","Safari","16.1","OS X","10_15_7","null","null","","<p style=""font-size : 48px"">+</p>","","modified-whole","","",""
"","","","","","sentence","81199","html-keyboard-response","110","117498","0.0-6.0-1.21","4","1","2022-11-11 20:56:30","5e9f10ee8cf4e9417ddb2c8afee766bf","139.140.208.169","Mozilla/5.0 (Macintosh; Intel Mac OS X 10_15_7) AppleWebKit/605.1.15 (KHTML, like Gecko) Version/16.1 Safari/605.1.15","Macintosh","Safari","16.1","OS X","10_15_7","303"," ","","Someone slices a lemon in front of you.","","modified-whole","","",""
"","","","","","fixation","81199","html-keyboard-response","111","118002","0.0-6.0-2.21","4","1","2022-11-11 20:56:30","5e9f10ee8cf4e9417ddb2c8afee766bf","139.140.208.169","Mozilla/5.0 (Macintosh; Intel Mac OS X 10_15_7) AppleWebKit/605.1.15 (KHTML, like Gecko) Version/16.1 Safari/605.1.15","Macintosh","Safari","16.1","OS X","10_15_7","null","null","","<p style=""font-size : 48px"">+</p>","","modified-whole","","",""
"","","","","","picture","81199","image-keyboard-response","112","118533","0.0-6.0-3.21","4","1","2022-11-11 20:56:30","5e9f10ee8cf4e9417ddb2c8afee766bf","139.140.208.169","Mozilla/5.0 (Macintosh; Intel Mac OS X 10_15_7) AppleWebKit/605.1.15 (KHTML, like Gecko) Version/16.1 Safari/605.1.15","Macintosh","Safari","16.1","OS X","10_15_7","408","a","","lemon_whole.jpeg","","modified-whole","","true",""
"","","","","","fixation","81199","html-keyboard-response","113","119540","0.0-6.0-0.22","4","1","2022-11-11 20:56:30","5e9f10ee8cf4e9417ddb2c8afee766bf","139.140.208.169","Mozilla/5.0 (Macintosh; Intel Mac OS X 10_15_7) AppleWebKit/605.1.15 (KHTML, like Gecko) Version/16.1 Safari/605.1.15","Macintosh","Safari","16.1","OS X","10_15_7","null","null","","<p style=""font-size : 48px"">+</p>","","filler","","",""
"","","","","","sentence","81199","html-keyboard-response","114","119861","0.0-6.0-1.22","4","1","2022-11-11 20:56:30","5e9f10ee8cf4e9417ddb2c8afee766bf","139.140.208.169","Mozilla/5.0 (Macintosh; Intel Mac OS X 10_15_7) AppleWebKit/605.1.15 (KHTML, like Gecko) Version/16.1 Safari/605.1.15","Macintosh","Safari","16.1","OS X","10_15_7","315"," ","","You look at a couch.","","filler","","",""
"","","","","","fixation","81199","html-keyboard-response","115","120368","0.0-6.0-2.22","4","1","2022-11-11 20:56:30","5e9f10ee8cf4e9417ddb2c8afee766bf","139.140.208.169","Mozilla/5.0 (Macintosh; Intel Mac OS X 10_15_7) AppleWebKit/605.1.15 (KHTML, like Gecko) Version/16.1 Safari/605.1.15","Macintosh","Safari","16.1","OS X","10_15_7","null","null","","<p style=""font-size : 48px"">+</p>","","filler","","",""
"","","","","","picture","81199","image-keyboard-response","116","121446","0.0-6.0-3.22","4","1","2022-11-11 20:56:30","5e9f10ee8cf4e9417ddb2c8afee766bf","139.140.208.169","Mozilla/5.0 (Macintosh; Intel Mac OS X 10_15_7) AppleWebKit/605.1.15 (KHTML, like Gecko) Version/16.1 Safari/605.1.15","Macintosh","Safari","16.1","OS X","10_15_7","947","a","","couch.jpeg","","filler","","true",""
"","","","","","fixation","81199","html-keyboard-response","117","122452","0.0-6.0-0.23","4","1","2022-11-11 20:56:30","5e9f10ee8cf4e9417ddb2c8afee766bf","139.140.208.169","Mozilla/5.0 (Macintosh; Intel Mac OS X 10_15_7) AppleWebKit/605.1.15 (KHTML, like Gecko) Version/16.1 Safari/605.1.15","Macintosh","Safari","16.1","OS X","10_15_7","null","null","","<p style=""font-size : 48px"">+</p>","","filler","","",""
"","","","","","sentence","81199","html-keyboard-response","118","122886","0.0-6.0-1.23","4","1","2022-11-11 20:56:30","5e9f10ee8cf4e9417ddb2c8afee766bf","139.140.208.169","Mozilla/5.0 (Macintosh; Intel Mac OS X 10_15_7) AppleWebKit/605.1.15 (KHTML, like Gecko) Version/16.1 Safari/605.1.15","Macintosh","Safari","16.1","OS X","10_15_7","429"," ","","You look at a TV.","","filler","","",""
"","","","","","fixation","81199","html-keyboard-response","119","123393","0.0-6.0-2.23","4","1","2022-11-11 20:56:30","5e9f10ee8cf4e9417ddb2c8afee766bf","139.140.208.169","Mozilla/5.0 (Macintosh; Intel Mac OS X 10_15_7) AppleWebKit/605.1.15 (KHTML, like Gecko) Version/16.1 Safari/605.1.15","Macintosh","Safari","16.1","OS X","10_15_7","null","null","","<p style=""font-size : 48px"">+</p>","","filler","","",""
"","","","","","picture","81199","image-keyboard-response","120","124014","0.0-6.0-3.23","4","1","2022-11-11 20:56:30","5e9f10ee8cf4e9417ddb2c8afee766bf","139.140.208.169","Mozilla/5.0 (Macintosh; Intel Mac OS X 10_15_7) AppleWebKit/605.1.15 (KHTML, like Gecko) Version/16.1 Safari/605.1.15","Macintosh","Safari","16.1","OS X","10_15_7","475","l","","backpack.jpeg","","filler","","true",""
"","","","","","fixation","81199","html-keyboard-response","121","125019","0.0-6.0-0.24","4","1","2022-11-11 20:56:30","5e9f10ee8cf4e9417ddb2c8afee766bf","139.140.208.169","Mozilla/5.0 (Macintosh; Intel Mac OS X 10_15_7) AppleWebKit/605.1.15 (KHTML, like Gecko) Version/16.1 Safari/605.1.15","Macintosh","Safari","16.1","OS X","10_15_7","null","null","","<p style=""font-size : 48px"">+</p>","","filler","","",""
"","","","","","sentence","81199","html-keyboard-response","122","125356","0.0-6.0-1.24","4","1","2022-11-11 20:56:30","5e9f10ee8cf4e9417ddb2c8afee766bf","139.140.208.169","Mozilla/5.0 (Macintosh; Intel Mac OS X 10_15_7) AppleWebKit/605.1.15 (KHTML, like Gecko) Version/16.1 Safari/605.1.15","Macintosh","Safari","16.1","OS X","10_15_7","331"," ","","You look at a pencil.","","filler","","",""
"","","","","","fixation","81199","html-keyboard-response","123","125861","0.0-6.0-2.24","4","1","2022-11-11 20:56:30","5e9f10ee8cf4e9417ddb2c8afee766bf","139.140.208.169","Mozilla/5.0 (Macintosh; Intel Mac OS X 10_15_7) AppleWebKit/605.1.15 (KHTML, like Gecko) Version/16.1 Safari/605.1.15","Macintosh","Safari","16.1","OS X","10_15_7","null","null","","<p style=""font-size : 48px"">+</p>","","filler","","",""
"","","","","","picture","81199","image-keyboard-response","124","126599","0.0-6.0-3.24","4","1","2022-11-11 20:56:30","5e9f10ee8cf4e9417ddb2c8afee766bf","139.140.208.169","Mozilla/5.0 (Macintosh; Intel Mac OS X 10_15_7) AppleWebKit/605.1.15 (KHTML, like Gecko) Version/16.1 Safari/605.1.15","Macintosh","Safari","16.1","OS X","10_15_7","543","l","","spoon.jpeg","","filler","","true",""
"","","","","","fixation","81199","html-keyboard-response","125","127605","0.0-6.0-0.25","4","1","2022-11-11 20:56:30","5e9f10ee8cf4e9417ddb2c8afee766bf","139.140.208.169","Mozilla/5.0 (Macintosh; Intel Mac OS X 10_15_7) AppleWebKit/605.1.15 (KHTML, like Gecko) Version/16.1 Safari/605.1.15","Macintosh","Safari","16.1","OS X","10_15_7","null","null","","<p style=""font-size : 48px"">+</p>","","filler","","",""
"","","","","","sentence","81199","html-keyboard-response","126","127912","0.0-6.0-1.25","4","1","2022-11-11 20:56:30","5e9f10ee8cf4e9417ddb2c8afee766bf","139.140.208.169","Mozilla/5.0 (Macintosh; Intel Mac OS X 10_15_7) AppleWebKit/605.1.15 (KHTML, like Gecko) Version/16.1 Safari/605.1.15","Macintosh","Safari","16.1","OS X","10_15_7","303"," ","","You look at a pillow.","","filler","","",""
"","","","","","fixation","81199","html-keyboard-response","127","128417","0.0-6.0-2.25","4","1","2022-11-11 20:56:30","5e9f10ee8cf4e9417ddb2c8afee766bf","139.140.208.169","Mozilla/5.0 (Macintosh; Intel Mac OS X 10_15_7) AppleWebKit/605.1.15 (KHTML, like Gecko) Version/16.1 Safari/605.1.15","Macintosh","Safari","16.1","OS X","10_15_7","null","null","","<p style=""font-size : 48px"">+</p>","","filler","","",""
"","","","","","picture","81199","image-keyboard-response","128","129016","0.0-6.0-3.25","4","1","2022-11-11 20:56:30","5e9f10ee8cf4e9417ddb2c8afee766bf","139.140.208.169","Mozilla/5.0 (Macintosh; Intel Mac OS X 10_15_7) AppleWebKit/605.1.15 (KHTML, like Gecko) Version/16.1 Safari/605.1.15","Macintosh","Safari","16.1","OS X","10_15_7","524","a","","pillow.jpeg","","filler","","true",""
"","","","","","fixation","81199","html-keyboard-response","129","130021","0.0-6.0-0.26","4","1","2022-11-11 20:56:30","5e9f10ee8cf4e9417ddb2c8afee766bf","139.140.208.169","Mozilla/5.0 (Macintosh; Intel Mac OS X 10_15_7) AppleWebKit/605.1.15 (KHTML, like Gecko) Version/16.1 Safari/605.1.15","Macintosh","Safari","16.1","OS X","10_15_7","null","null","","<p style=""font-size : 48px"">+</p>","","modified-slice","","",""
"","","","","","sentence","81199","html-keyboard-response","130","130364","0.0-6.0-1.26","4","1","2022-11-11 20:56:30","5e9f10ee8cf4e9417ddb2c8afee766bf","139.140.208.169","Mozilla/5.0 (Macintosh; Intel Mac OS X 10_15_7) AppleWebKit/605.1.15 (KHTML, like Gecko) Version/16.1 Safari/605.1.15","Macintosh","Safari","16.1","OS X","10_15_7","337"," ","","Someone slices bread in front of you.","","modified-slice","","",""
"","","","","","fixation","81199","html-keyboard-response","131","130868","0.0-6.0-2.26","4","1","2022-11-11 20:56:30","5e9f10ee8cf4e9417ddb2c8afee766bf","139.140.208.169","Mozilla/5.0 (Macintosh; Intel Mac OS X 10_15_7) AppleWebKit/605.1.15 (KHTML, like Gecko) Version/16.1 Safari/605.1.15","Macintosh","Safari","16.1","OS X","10_15_7","null","null","","<p style=""font-size : 48px"">+</p>","","modified-slice","","",""
"","","","","","picture","81199","image-keyboard-response","132","131636","0.0-6.0-3.26","4","1","2022-11-11 20:56:30","5e9f10ee8cf4e9417ddb2c8afee766bf","139.140.208.169","Mozilla/5.0 (Macintosh; Intel Mac OS X 10_15_7) AppleWebKit/605.1.15 (KHTML, like Gecko) Version/16.1 Safari/605.1.15","Macintosh","Safari","16.1","OS X","10_15_7","663","a","","bread_slice.jpeg","","modified-slice","","true",""
"","","","","","fixation","81199","html-keyboard-response","133","132641","0.0-6.0-0.27","4","1","2022-11-11 20:56:30","5e9f10ee8cf4e9417ddb2c8afee766bf","139.140.208.169","Mozilla/5.0 (Macintosh; Intel Mac OS X 10_15_7) AppleWebKit/605.1.15 (KHTML, like Gecko) Version/16.1 Safari/605.1.15","Macintosh","Safari","16.1","OS X","10_15_7","null","null","","<p style=""font-size : 48px"">+</p>","","filler","","",""
"","","","","","sentence","81199","html-keyboard-response","134","133050","0.0-6.0-1.27","4","1","2022-11-11 20:56:30","5e9f10ee8cf4e9417ddb2c8afee766bf","139.140.208.169","Mozilla/5.0 (Macintosh; Intel Mac OS X 10_15_7) AppleWebKit/605.1.15 (KHTML, like Gecko) Version/16.1 Safari/605.1.15","Macintosh","Safari","16.1","OS X","10_15_7","404"," ","","You look at some chips.","","filler","","",""
"","","","","","fixation","81199","html-keyboard-response","135","133552","0.0-6.0-2.27","4","1","2022-11-11 20:56:30","5e9f10ee8cf4e9417ddb2c8afee766bf","139.140.208.169","Mozilla/5.0 (Macintosh; Intel Mac OS X 10_15_7) AppleWebKit/605.1.15 (KHTML, like Gecko) Version/16.1 Safari/605.1.15","Macintosh","Safari","16.1","OS X","10_15_7","null","null","","<p style=""font-size : 48px"">+</p>","","filler","","",""
"","","","","","picture","81199","image-keyboard-response","136","134473","0.0-6.0-3.27","4","1","2022-11-11 20:56:30","5e9f10ee8cf4e9417ddb2c8afee766bf","139.140.208.169","Mozilla/5.0 (Macintosh; Intel Mac OS X 10_15_7) AppleWebKit/605.1.15 (KHTML, like Gecko) Version/16.1 Safari/605.1.15","Macintosh","Safari","16.1","OS X","10_15_7","759","a","","chips.jpeg","","filler","","true",""
"","","","","","fixation","81199","html-keyboard-response","137","135478","0.0-6.0-0.28","4","1","2022-11-11 20:56:30","5e9f10ee8cf4e9417ddb2c8afee766bf","139.140.208.169","Mozilla/5.0 (Macintosh; Intel Mac OS X 10_15_7) AppleWebKit/605.1.15 (KHTML, like Gecko) Version/16.1 Safari/605.1.15","Macintosh","Safari","16.1","OS X","10_15_7","null","null","","<p style=""font-size : 48px"">+</p>","","filler","","",""
"","","","","","sentence","81199","html-keyboard-response","138","135873","0.0-6.0-1.28","4","1","2022-11-11 20:56:30","5e9f10ee8cf4e9417ddb2c8afee766bf","139.140.208.169","Mozilla/5.0 (Macintosh; Intel Mac OS X 10_15_7) AppleWebKit/605.1.15 (KHTML, like Gecko) Version/16.1 Safari/605.1.15","Macintosh","Safari","16.1","OS X","10_15_7","388"," ","","You look at a shoe.","","filler","","",""
"","","","","","fixation","81199","html-keyboard-response","139","136379","0.0-6.0-2.28","4","1","2022-11-11 20:56:30","5e9f10ee8cf4e9417ddb2c8afee766bf","139.140.208.169","Mozilla/5.0 (Macintosh; Intel Mac OS X 10_15_7) AppleWebKit/605.1.15 (KHTML, like Gecko) Version/16.1 Safari/605.1.15","Macintosh","Safari","16.1","OS X","10_15_7","null","null","","<p style=""font-size : 48px"">+</p>","","filler","","",""
"","","","","","picture","81199","image-keyboard-response","140","136963","0.0-6.0-3.28","4","1","2022-11-11 20:56:30","5e9f10ee8cf4e9417ddb2c8afee766bf","139.140.208.169","Mozilla/5.0 (Macintosh; Intel Mac OS X 10_15_7) AppleWebKit/605.1.15 (KHTML, like Gecko) Version/16.1 Safari/605.1.15","Macintosh","Safari","16.1","OS X","10_15_7","478","l","","book.jpeg","","filler","","true",""
"","","","","","fixation","81199","html-keyboard-response","141","137969","0.0-6.0-0.29","4","1","2022-11-11 20:56:30","5e9f10ee8cf4e9417ddb2c8afee766bf","139.140.208.169","Mozilla/5.0 (Macintosh; Intel Mac OS X 10_15_7) AppleWebKit/605.1.15 (KHTML, like Gecko) Version/16.1 Safari/605.1.15","Macintosh","Safari","16.1","OS X","10_15_7","null","null","","<p style=""font-size : 48px"">+</p>","","filler","","",""
"","","","","","sentence","81199","html-keyboard-response","142","138330","0.0-6.0-1.29","4","1","2022-11-11 20:56:30","5e9f10ee8cf4e9417ddb2c8afee766bf","139.140.208.169","Mozilla/5.0 (Macintosh; Intel Mac OS X 10_15_7) AppleWebKit/605.1.15 (KHTML, like Gecko) Version/16.1 Safari/605.1.15","Macintosh","Safari","16.1","OS X","10_15_7","355"," ","","You look at a taco.","","filler","","",""
"","","","","","fixation","81199","html-keyboard-response","143","138835","0.0-6.0-2.29","4","1","2022-11-11 20:56:30","5e9f10ee8cf4e9417ddb2c8afee766bf","139.140.208.169","Mozilla/5.0 (Macintosh; Intel Mac OS X 10_15_7) AppleWebKit/605.1.15 (KHTML, like Gecko) Version/16.1 Safari/605.1.15","Macintosh","Safari","16.1","OS X","10_15_7","null","null","","<p style=""font-size : 48px"">+</p>","","filler","","",""
"","","","","","picture","81199","image-keyboard-response","144","139500","0.0-6.0-3.29","4","1","2022-11-11 20:56:30","5e9f10ee8cf4e9417ddb2c8afee766bf","139.140.208.169","Mozilla/5.0 (Macintosh; Intel Mac OS X 10_15_7) AppleWebKit/605.1.15 (KHTML, like Gecko) Version/16.1 Safari/605.1.15","Macintosh","Safari","16.1","OS X","10_15_7","570","a","","taco.jpeg","","filler","","true",""
"","","","","","fixation","81199","html-keyboard-response","145","140506","0.0-6.0-0.30","4","1","2022-11-11 20:56:30","5e9f10ee8cf4e9417ddb2c8afee766bf","139.140.208.169","Mozilla/5.0 (Macintosh; Intel Mac OS X 10_15_7) AppleWebKit/605.1.15 (KHTML, like Gecko) Version/16.1 Safari/605.1.15","Macintosh","Safari","16.1","OS X","10_15_7","null","null","","<p style=""font-size : 48px"">+</p>","","filler","","",""
"","","","","","sentence","81199","html-keyboard-response","146","140973","0.0-6.0-1.30","4","1","2022-11-11 20:56:30","5e9f10ee8cf4e9417ddb2c8afee766bf","139.140.208.169","Mozilla/5.0 (Macintosh; Intel Mac OS X 10_15_7) AppleWebKit/605.1.15 (KHTML, like Gecko) Version/16.1 Safari/605.1.15","Macintosh","Safari","16.1","OS X","10_15_7","459"," ","","You look at a book.","","filler","","",""
"","","","","","fixation","81199","html-keyboard-response","147","141479","0.0-6.0-2.30","4","1","2022-11-11 20:56:30","5e9f10ee8cf4e9417ddb2c8afee766bf","139.140.208.169","Mozilla/5.0 (Macintosh; Intel Mac OS X 10_15_7) AppleWebKit/605.1.15 (KHTML, like Gecko) Version/16.1 Safari/605.1.15","Macintosh","Safari","16.1","OS X","10_15_7","null","null","","<p style=""font-size : 48px"">+</p>","","filler","","",""
"","","","","","picture","81199","image-keyboard-response","148","142095","0.0-6.0-3.30","4","1","2022-11-11 20:56:30","5e9f10ee8cf4e9417ddb2c8afee766bf","139.140.208.169","Mozilla/5.0 (Macintosh; Intel Mac OS X 10_15_7) AppleWebKit/605.1.15 (KHTML, like Gecko) Version/16.1 Safari/605.1.15","Macintosh","Safari","16.1","OS X","10_15_7","552","l","","ring.jpeg","","filler","","true",""
"","","","","","fixation","81199","html-keyboard-response","149","143102","0.0-6.0-0.31","4","1","2022-11-11 20:56:30","5e9f10ee8cf4e9417ddb2c8afee766bf","139.140.208.169","Mozilla/5.0 (Macintosh; Intel Mac OS X 10_15_7) AppleWebKit/605.1.15 (KHTML, like Gecko) Version/16.1 Safari/605.1.15","Macintosh","Safari","16.1","OS X","10_15_7","null","null","","<p style=""font-size : 48px"">+</p>","","neutral-whole","","",""
"","","","","","sentence","81199","html-keyboard-response","150","143409","0.0-6.0-1.31","4","1","2022-11-11 20:56:30","5e9f10ee8cf4e9417ddb2c8afee766bf","139.140.208.169","Mozilla/5.0 (Macintosh; Intel Mac OS X 10_15_7) AppleWebKit/605.1.15 (KHTML, like Gecko) Version/16.1 Safari/605.1.15","Macintosh","Safari","16.1","OS X","10_15_7","300"," ","","Someone places a mango in front of you.","","neutral-whole","","",""
"","","","","","fixation","81199","html-keyboard-response","151","143914","0.0-6.0-2.31","4","1","2022-11-11 20:56:30","5e9f10ee8cf4e9417ddb2c8afee766bf","139.140.208.169","Mozilla/5.0 (Macintosh; Intel Mac OS X 10_15_7) AppleWebKit/605.1.15 (KHTML, like Gecko) Version/16.1 Safari/605.1.15","Macintosh","Safari","16.1","OS X","10_15_7","null","null","","<p style=""font-size : 48px"">+</p>","","neutral-whole","","",""
"","","","","","picture","81199","image-keyboard-response","152","144409","0.0-6.0-3.31","4","1","2022-11-11 20:56:30","5e9f10ee8cf4e9417ddb2c8afee766bf","139.140.208.169","Mozilla/5.0 (Macintosh; Intel Mac OS X 10_15_7) AppleWebKit/605.1.15 (KHTML, like Gecko) Version/16.1 Safari/605.1.15","Macintosh","Safari","16.1","OS X","10_15_7","429","a","","mango_whole.jpeg","","neutral-whole","","true",""
"","","","","","fixation","81199","html-keyboard-response","153","145414","0.0-6.0-0.32","4","1","2022-11-11 20:56:30","5e9f10ee8cf4e9417ddb2c8afee766bf","139.140.208.169","Mozilla/5.0 (Macintosh; Intel Mac OS X 10_15_7) AppleWebKit/605.1.15 (KHTML, like Gecko) Version/16.1 Safari/605.1.15","Macintosh","Safari","16.1","OS X","10_15_7","null","null","","<p style=""font-size : 48px"">+</p>","","filler","","",""
"","","","","","sentence","81199","html-keyboard-response","154","145734","0.0-6.0-1.32","4","1","2022-11-11 20:56:30","5e9f10ee8cf4e9417ddb2c8afee766bf","139.140.208.169","Mozilla/5.0 (Macintosh; Intel Mac OS X 10_15_7) AppleWebKit/605.1.15 (KHTML, like Gecko) Version/16.1 Safari/605.1.15","Macintosh","Safari","16.1","OS X","10_15_7","313"," ","","You look at a tennisball.","","filler","","",""
"","","","","","fixation","81199","html-keyboard-response","155","146239","0.0-6.0-2.32","4","1","2022-11-11 20:56:30","5e9f10ee8cf4e9417ddb2c8afee766bf","139.140.208.169","Mozilla/5.0 (Macintosh; Intel Mac OS X 10_15_7) AppleWebKit/605.1.15 (KHTML, like Gecko) Version/16.1 Safari/605.1.15","Macintosh","Safari","16.1","OS X","10_15_7","null","null","","<p style=""font-size : 48px"">+</p>","","filler","","",""
"","","","","","picture","81199","image-keyboard-response","156","146766","0.0-6.0-3.32","4","1","2022-11-11 20:56:30","5e9f10ee8cf4e9417ddb2c8afee766bf","139.140.208.169","Mozilla/5.0 (Macintosh; Intel Mac OS X 10_15_7) AppleWebKit/605.1.15 (KHTML, like Gecko) Version/16.1 Safari/605.1.15","Macintosh","Safari","16.1","OS X","10_15_7","416","l","","pants.jpeg","","filler","","true",""
"","","","","","fixation","81199","html-keyboard-response","157","147771","0.0-6.0-0.33","4","1","2022-11-11 20:56:30","5e9f10ee8cf4e9417ddb2c8afee766bf","139.140.208.169","Mozilla/5.0 (Macintosh; Intel Mac OS X 10_15_7) AppleWebKit/605.1.15 (KHTML, like Gecko) Version/16.1 Safari/605.1.15","Macintosh","Safari","16.1","OS X","10_15_7","null","null","","<p style=""font-size : 48px"">+</p>","","modified-whole","","",""
"","","","","","sentence","81199","html-keyboard-response","158","148119","0.0-6.0-1.33","4","1","2022-11-11 20:56:30","5e9f10ee8cf4e9417ddb2c8afee766bf","139.140.208.169","Mozilla/5.0 (Macintosh; Intel Mac OS X 10_15_7) AppleWebKit/605.1.15 (KHTML, like Gecko) Version/16.1 Safari/605.1.15","Macintosh","Safari","16.1","OS X","10_15_7","341"," ","","Someone slices a peach in front of you.","","modified-whole","","",""
"","","","","","fixation","81199","html-keyboard-response","159","148626","0.0-6.0-2.33","4","1","2022-11-11 20:56:30","5e9f10ee8cf4e9417ddb2c8afee766bf","139.140.208.169","Mozilla/5.0 (Macintosh; Intel Mac OS X 10_15_7) AppleWebKit/605.1.15 (KHTML, like Gecko) Version/16.1 Safari/605.1.15","Macintosh","Safari","16.1","OS X","10_15_7","null","null","","<p style=""font-size : 48px"">+</p>","","modified-whole","","",""
"","","","","","picture","81199","image-keyboard-response","160","149831","0.0-6.0-3.33","4","1","2022-11-11 20:56:30","5e9f10ee8cf4e9417ddb2c8afee766bf","139.140.208.169","Mozilla/5.0 (Macintosh; Intel Mac OS X 10_15_7) AppleWebKit/605.1.15 (KHTML, like Gecko) Version/16.1 Safari/605.1.15","Macintosh","Safari","16.1","OS X","10_15_7","1097","l","","peach_whole.jpeg","","modified-whole","","false",""
"","","","","","fixation","81199","html-keyboard-response","161","150838","0.0-6.0-0.34","4","1","2022-11-11 20:56:30","5e9f10ee8cf4e9417ddb2c8afee766bf","139.140.208.169","Mozilla/5.0 (Macintosh; Intel Mac OS X 10_15_7) AppleWebKit/605.1.15 (KHTML, like Gecko) Version/16.1 Safari/605.1.15","Macintosh","Safari","16.1","OS X","10_15_7","null","null","","<p style=""font-size : 48px"">+</p>","","neutral-slice","","",""
"","","","","","sentence","81199","html-keyboard-response","162","151308","0.0-6.0-1.34","4","1","2022-11-11 20:56:30","5e9f10ee8cf4e9417ddb2c8afee766bf","139.140.208.169","Mozilla/5.0 (Macintosh; Intel Mac OS X 10_15_7) AppleWebKit/605.1.15 (KHTML, like Gecko) Version/16.1 Safari/605.1.15","Macintosh","Safari","16.1","OS X","10_15_7","462"," ","","Someone places mushrooms in front of you.","","neutral-slice","","",""
"","","","","","fixation","81199","html-keyboard-response","163","151814","0.0-6.0-2.34","4","1","2022-11-11 20:56:30","5e9f10ee8cf4e9417ddb2c8afee766bf","139.140.208.169","Mozilla/5.0 (Macintosh; Intel Mac OS X 10_15_7) AppleWebKit/605.1.15 (KHTML, like Gecko) Version/16.1 Safari/605.1.15","Macintosh","Safari","16.1","OS X","10_15_7","null","null","","<p style=""font-size : 48px"">+</p>","","neutral-slice","","",""
"","","","","","picture","81199","image-keyboard-response","164","152509","0.0-6.0-3.34","4","1","2022-11-11 20:56:30","5e9f10ee8cf4e9417ddb2c8afee766bf","139.140.208.169","Mozilla/5.0 (Macintosh; Intel Mac OS X 10_15_7) AppleWebKit/605.1.15 (KHTML, like Gecko) Version/16.1 Safari/605.1.15","Macintosh","Safari","16.1","OS X","10_15_7","569","a","","mushrooms_slice.jpeg","","neutral-slice","","true",""
"","","","","","fixation","81199","html-keyboard-response","165","153517","0.0-6.0-0.35","4","1","2022-11-11 20:56:30","5e9f10ee8cf4e9417ddb2c8afee766bf","139.140.208.169","Mozilla/5.0 (Macintosh; Intel Mac OS X 10_15_7) AppleWebKit/605.1.15 (KHTML, like Gecko) Version/16.1 Safari/605.1.15","Macintosh","Safari","16.1","OS X","10_15_7","null","null","","<p style=""font-size : 48px"">+</p>","","filler","","",""
"","","","","","sentence","81199","html-keyboard-response","166","153850","0.0-6.0-1.35","4","1","2022-11-11 20:56:30","5e9f10ee8cf4e9417ddb2c8afee766bf","139.140.208.169","Mozilla/5.0 (Macintosh; Intel Mac OS X 10_15_7) AppleWebKit/605.1.15 (KHTML, like Gecko) Version/16.1 Safari/605.1.15","Macintosh","Safari","16.1","OS X","10_15_7","326"," ","","You look at pasta.","","filler","","",""
"","","","","","fixation","81199","html-keyboard-response","167","154356","0.0-6.0-2.35","4","1","2022-11-11 20:56:30","5e9f10ee8cf4e9417ddb2c8afee766bf","139.140.208.169","Mozilla/5.0 (Macintosh; Intel Mac OS X 10_15_7) AppleWebKit/605.1.15 (KHTML, like Gecko) Version/16.1 Safari/605.1.15","Macintosh","Safari","16.1","OS X","10_15_7","null","null","","<p style=""font-size : 48px"">+</p>","","filler","","",""
"","","","","","picture","81199","image-keyboard-response","168","154947","0.0-6.0-3.35","4","1","2022-11-11 20:56:30","5e9f10ee8cf4e9417ddb2c8afee766bf","139.140.208.169","Mozilla/5.0 (Macintosh; Intel Mac OS X 10_15_7) AppleWebKit/605.1.15 (KHTML, like Gecko) Version/16.1 Safari/605.1.15","Macintosh","Safari","16.1","OS X","10_15_7","503","l","","granolabar.jpeg","","filler","","true",""
"","","","","","fixation","81199","html-keyboard-response","169","155953","0.0-6.0-0.36","4","1","2022-11-11 20:56:30","5e9f10ee8cf4e9417ddb2c8afee766bf","139.140.208.169","Mozilla/5.0 (Macintosh; Intel Mac OS X 10_15_7) AppleWebKit/605.1.15 (KHTML, like Gecko) Version/16.1 Safari/605.1.15","Macintosh","Safari","16.1","OS X","10_15_7","null","null","","<p style=""font-size : 48px"">+</p>","","modified-slice","","",""
"","","","","","sentence","81199","html-keyboard-response","170","156272","0.0-6.0-1.36","4","1","2022-11-11 20:56:30","5e9f10ee8cf4e9417ddb2c8afee766bf","139.140.208.169","Mozilla/5.0 (Macintosh; Intel Mac OS X 10_15_7) AppleWebKit/605.1.15 (KHTML, like Gecko) Version/16.1 Safari/605.1.15","Macintosh","Safari","16.1","OS X","10_15_7","312"," ","","Someone slices an apple in front of you.","","modified-slice","","",""
"","","","","","fixation","81199","html-keyboard-response","171","156778","0.0-6.0-2.36","4","1","2022-11-11 20:56:30","5e9f10ee8cf4e9417ddb2c8afee766bf","139.140.208.169","Mozilla/5.0 (Macintosh; Intel Mac OS X 10_15_7) AppleWebKit/605.1.15 (KHTML, like Gecko) Version/16.1 Safari/605.1.15","Macintosh","Safari","16.1","OS X","10_15_7","null","null","","<p style=""font-size : 48px"">+</p>","","modified-slice","","",""
"","","","","","picture","81199","image-keyboard-response","172","157401","0.0-6.0-3.36","4","1","2022-11-11 20:56:30","5e9f10ee8cf4e9417ddb2c8afee766bf","139.140.208.169","Mozilla/5.0 (Macintosh; Intel Mac OS X 10_15_7) AppleWebKit/605.1.15 (KHTML, like Gecko) Version/16.1 Safari/605.1.15","Macintosh","Safari","16.1","OS X","10_15_7","549","a","","apple_slice.jpeg","","modified-slice","","true",""
"","","","","","fixation","81199","html-keyboard-response","173","158405","0.0-6.0-0.37","4","1","2022-11-11 20:56:30","5e9f10ee8cf4e9417ddb2c8afee766bf","139.140.208.169","Mozilla/5.0 (Macintosh; Intel Mac OS X 10_15_7) AppleWebKit/605.1.15 (KHTML, like Gecko) Version/16.1 Safari/605.1.15","Macintosh","Safari","16.1","OS X","10_15_7","null","null","","<p style=""font-size : 48px"">+</p>","","filler","","",""
"","","","","","sentence","81199","html-keyboard-response","174","158744","0.0-6.0-1.37","4","1","2022-11-11 20:56:30","5e9f10ee8cf4e9417ddb2c8afee766bf","139.140.208.169","Mozilla/5.0 (Macintosh; Intel Mac OS X 10_15_7) AppleWebKit/605.1.15 (KHTML, like Gecko) Version/16.1 Safari/605.1.15","Macintosh","Safari","16.1","OS X","10_15_7","332"," ","","You look at a phone.","","filler","","",""
"","","","","","fixation","81199","html-keyboard-response","175","159249","0.0-6.0-2.37","4","1","2022-11-11 20:56:30","5e9f10ee8cf4e9417ddb2c8afee766bf","139.140.208.169","Mozilla/5.0 (Macintosh; Intel Mac OS X 10_15_7) AppleWebKit/605.1.15 (KHTML, like Gecko) Version/16.1 Safari/605.1.15","Macintosh","Safari","16.1","OS X","10_15_7","null","null","","<p style=""font-size : 48px"">+</p>","","filler","","",""
"","","","","","picture","81199","image-keyboard-response","176","159971","0.0-6.0-3.37","4","1","2022-11-11 20:56:30","5e9f10ee8cf4e9417ddb2c8afee766bf","139.140.208.169","Mozilla/5.0 (Macintosh; Intel Mac OS X 10_15_7) AppleWebKit/605.1.15 (KHTML, like Gecko) Version/16.1 Safari/605.1.15","Macintosh","Safari","16.1","OS X","10_15_7","499","l","","plate.jpeg","","filler","","true",""
"","","","","","fixation","81199","html-keyboard-response","177","160978","0.0-6.0-0.38","4","1","2022-11-11 20:56:30","5e9f10ee8cf4e9417ddb2c8afee766bf","139.140.208.169","Mozilla/5.0 (Macintosh; Intel Mac OS X 10_15_7) AppleWebKit/605.1.15 (KHTML, like Gecko) Version/16.1 Safari/605.1.15","Macintosh","Safari","16.1","OS X","10_15_7","null","null","","<p style=""font-size : 48px"">+</p>","","filler","","",""
"","","","","","sentence","81199","html-keyboard-response","178","161299","0.0-6.0-1.38","4","1","2022-11-11 20:56:30","5e9f10ee8cf4e9417ddb2c8afee766bf","139.140.208.169","Mozilla/5.0 (Macintosh; Intel Mac OS X 10_15_7) AppleWebKit/605.1.15 (KHTML, like Gecko) Version/16.1 Safari/605.1.15","Macintosh","Safari","16.1","OS X","10_15_7","315"," ","","You look at a coat.","","filler","","",""
"","","","","","fixation","81199","html-keyboard-response","179","161805","0.0-6.0-2.38","4","1","2022-11-11 20:56:30","5e9f10ee8cf4e9417ddb2c8afee766bf","139.140.208.169","Mozilla/5.0 (Macintosh; Intel Mac OS X 10_15_7) AppleWebKit/605.1.15 (KHTML, like Gecko) Version/16.1 Safari/605.1.15","Macintosh","Safari","16.1","OS X","10_15_7","null","null","","<p style=""font-size : 48px"">+</p>","","filler","","",""
"","","","","","picture","81199","image-keyboard-response","180","162423","0.0-6.0-3.38","4","1","2022-11-11 20:56:30","5e9f10ee8cf4e9417ddb2c8afee766bf","139.140.208.169","Mozilla/5.0 (Macintosh; Intel Mac OS X 10_15_7) AppleWebKit/605.1.15 (KHTML, like Gecko) Version/16.1 Safari/605.1.15","Macintosh","Safari","16.1","OS X","10_15_7","461","l","","bottle.jpeg","","filler","","true",""
"","","","","","fixation","81199","html-keyboard-response","181","163429","0.0-6.0-0.39","4","1","2022-11-11 20:56:30","5e9f10ee8cf4e9417ddb2c8afee766bf","139.140.208.169","Mozilla/5.0 (Macintosh; Intel Mac OS X 10_15_7) AppleWebKit/605.1.15 (KHTML, like Gecko) Version/16.1 Safari/605.1.15","Macintosh","Safari","16.1","OS X","10_15_7","null","null","","<p style=""font-size : 48px"">+</p>","","modified-whole","","",""
"","","","","","sentence","81199","html-keyboard-response","182","163732","0.0-6.0-1.39","4","1","2022-11-11 20:56:30","5e9f10ee8cf4e9417ddb2c8afee766bf","139.140.208.169","Mozilla/5.0 (Macintosh; Intel Mac OS X 10_15_7) AppleWebKit/605.1.15 (KHTML, like Gecko) Version/16.1 Safari/605.1.15","Macintosh","Safari","16.1","OS X","10_15_7","297"," ","","Someone slices a cheesecake in front of you.","","modified-whole","","",""
"","","","","","fixation","81199","html-keyboard-response","183","164238","0.0-6.0-2.39","4","1","2022-11-11 20:56:30","5e9f10ee8cf4e9417ddb2c8afee766bf","139.140.208.169","Mozilla/5.0 (Macintosh; Intel Mac OS X 10_15_7) AppleWebKit/605.1.15 (KHTML, like Gecko) Version/16.1 Safari/605.1.15","Macintosh","Safari","16.1","OS X","10_15_7","null","null","","<p style=""font-size : 48px"">+</p>","","modified-whole","","",""
"","","","","","picture","81199","image-keyboard-response","184","166642","0.0-6.0-3.39","4","1","2022-11-11 20:56:30","5e9f10ee8cf4e9417ddb2c8afee766bf","139.140.208.169","Mozilla/5.0 (Macintosh; Intel Mac OS X 10_15_7) AppleWebKit/605.1.15 (KHTML, like Gecko) Version/16.1 Safari/605.1.15","Macintosh","Safari","16.1","OS X","10_15_7","2288","l","","cheesecake_whole.jpeg","","modified-whole","","false",""
"","","","","","fixation","81199","html-keyboard-response","185","167649","0.0-6.0-0.40","4","1","2022-11-11 20:56:30","5e9f10ee8cf4e9417ddb2c8afee766bf","139.140.208.169","Mozilla/5.0 (Macintosh; Intel Mac OS X 10_15_7) AppleWebKit/605.1.15 (KHTML, like Gecko) Version/16.1 Safari/605.1.15","Macintosh","Safari","16.1","OS X","10_15_7","null","null","","<p style=""font-size : 48px"">+</p>","","neutral-whole","","",""
"","","","","","sentence","81199","html-keyboard-response","186","168405","0.0-6.0-1.40","4","1","2022-11-11 20:56:30","5e9f10ee8cf4e9417ddb2c8afee766bf","139.140.208.169","Mozilla/5.0 (Macintosh; Intel Mac OS X 10_15_7) AppleWebKit/605.1.15 (KHTML, like Gecko) Version/16.1 Safari/605.1.15","Macintosh","Safari","16.1","OS X","10_15_7","748"," ","","Someone places a strawberry in front of you.","","neutral-whole","","",""
"","","","","","fixation","81199","html-keyboard-response","187","168912","0.0-6.0-2.40","4","1","2022-11-11 20:56:30","5e9f10ee8cf4e9417ddb2c8afee766bf","139.140.208.169","Mozilla/5.0 (Macintosh; Intel Mac OS X 10_15_7) AppleWebKit/605.1.15 (KHTML, like Gecko) Version/16.1 Safari/605.1.15","Macintosh","Safari","16.1","OS X","10_15_7","null","null","","<p style=""font-size : 48px"">+</p>","","neutral-whole","","",""
"","","","","","picture","81199","image-keyboard-response","188","169568","0.0-6.0-3.40","4","1","2022-11-11 20:56:30","5e9f10ee8cf4e9417ddb2c8afee766bf","139.140.208.169","Mozilla/5.0 (Macintosh; Intel Mac OS X 10_15_7) AppleWebKit/605.1.15 (KHTML, like Gecko) Version/16.1 Safari/605.1.15","Macintosh","Safari","16.1","OS X","10_15_7","554","a","","strawberry_whole.jpeg","","neutral-whole","","true",""
"","","","","","fixation","81199","html-keyboard-response","189","170576","0.0-6.0-0.41","4","1","2022-11-11 20:56:30","5e9f10ee8cf4e9417ddb2c8afee766bf","139.140.208.169","Mozilla/5.0 (Macintosh; Intel Mac OS X 10_15_7) AppleWebKit/605.1.15 (KHTML, like Gecko) Version/16.1 Safari/605.1.15","Macintosh","Safari","16.1","OS X","10_15_7","null","null","","<p style=""font-size : 48px"">+</p>","","filler","","",""
"","","","","","sentence","81199","html-keyboard-response","190","171179","0.0-6.0-1.41","4","1","2022-11-11 20:56:30","5e9f10ee8cf4e9417ddb2c8afee766bf","139.140.208.169","Mozilla/5.0 (Macintosh; Intel Mac OS X 10_15_7) AppleWebKit/605.1.15 (KHTML, like Gecko) Version/16.1 Safari/605.1.15","Macintosh","Safari","16.1","OS X","10_15_7","597"," ","","You look at some pants.","","filler","","",""
"","","","","","fixation","81199","html-keyboard-response","191","171685","0.0-6.0-2.41","4","1","2022-11-11 20:56:30","5e9f10ee8cf4e9417ddb2c8afee766bf","139.140.208.169","Mozilla/5.0 (Macintosh; Intel Mac OS X 10_15_7) AppleWebKit/605.1.15 (KHTML, like Gecko) Version/16.1 Safari/605.1.15","Macintosh","Safari","16.1","OS X","10_15_7","null","null","","<p style=""font-size : 48px"">+</p>","","filler","","",""
"","","","","","picture","81199","image-keyboard-response","192","172714","0.0-6.0-3.41","4","1","2022-11-11 20:56:30","5e9f10ee8cf4e9417ddb2c8afee766bf","139.140.208.169","Mozilla/5.0 (Macintosh; Intel Mac OS X 10_15_7) AppleWebKit/605.1.15 (KHTML, like Gecko) Version/16.1 Safari/605.1.15","Macintosh","Safari","16.1","OS X","10_15_7","805","l","","beanbag.jpeg","","filler","","true",""
"","","","","","fixation","81199","html-keyboard-response","193","173719","0.0-6.0-0.42","4","1","2022-11-11 20:56:30","5e9f10ee8cf4e9417ddb2c8afee766bf","139.140.208.169","Mozilla/5.0 (Macintosh; Intel Mac OS X 10_15_7) AppleWebKit/605.1.15 (KHTML, like Gecko) Version/16.1 Safari/605.1.15","Macintosh","Safari","16.1","OS X","10_15_7","null","null","","<p style=""font-size : 48px"">+</p>","","filler","","",""
"","","","","","sentence","81199","html-keyboard-response","194","174838","0.0-6.0-1.42","4","1","2022-11-11 20:56:30","5e9f10ee8cf4e9417ddb2c8afee766bf","139.140.208.169","Mozilla/5.0 (Macintosh; Intel Mac OS X 10_15_7) AppleWebKit/605.1.15 (KHTML, like Gecko) Version/16.1 Safari/605.1.15","Macintosh","Safari","16.1","OS X","10_15_7","1112"," ","","You look at a bottle.","","filler","","",""
"","","","","","fixation","81199","html-keyboard-response","195","175345","0.0-6.0-2.42","4","1","2022-11-11 20:56:30","5e9f10ee8cf4e9417ddb2c8afee766bf","139.140.208.169","Mozilla/5.0 (Macintosh; Intel Mac OS X 10_15_7) AppleWebKit/605.1.15 (KHTML, like Gecko) Version/16.1 Safari/605.1.15","Macintosh","Safari","16.1","OS X","10_15_7","null","null","","<p style=""font-size : 48px"">+</p>","","filler","","",""
"","","","","","picture","81199","image-keyboard-response","196","176099","0.0-6.0-3.42","4","1","2022-11-11 20:56:30","5e9f10ee8cf4e9417ddb2c8afee766bf","139.140.208.169","Mozilla/5.0 (Macintosh; Intel Mac OS X 10_15_7) AppleWebKit/605.1.15 (KHTML, like Gecko) Version/16.1 Safari/605.1.15","Macintosh","Safari","16.1","OS X","10_15_7","522","l","","camera.jpeg","","filler","","true",""
"","","","","","fixation","81199","html-keyboard-response","197","177106","0.0-6.0-0.43","4","1","2022-11-11 20:56:30","5e9f10ee8cf4e9417ddb2c8afee766bf","139.140.208.169","Mozilla/5.0 (Macintosh; Intel Mac OS X 10_15_7) AppleWebKit/605.1.15 (KHTML, like Gecko) Version/16.1 Safari/605.1.15","Macintosh","Safari","16.1","OS X","10_15_7","null","null","","<p style=""font-size : 48px"">+</p>","","filler","","",""
"","","","","","sentence","81199","html-keyboard-response","198","177621","0.0-6.0-1.43","4","1","2022-11-11 20:56:30","5e9f10ee8cf4e9417ddb2c8afee766bf","139.140.208.169","Mozilla/5.0 (Macintosh; Intel Mac OS X 10_15_7) AppleWebKit/605.1.15 (KHTML, like Gecko) Version/16.1 Safari/605.1.15","Macintosh","Safari","16.1","OS X","10_15_7","508"," ","","You look at a computer.","","filler","","",""
"","","","","","fixation","81199","html-keyboard-response","199","178128","0.0-6.0-2.43","4","1","2022-11-11 20:56:30","5e9f10ee8cf4e9417ddb2c8afee766bf","139.140.208.169","Mozilla/5.0 (Macintosh; Intel Mac OS X 10_15_7) AppleWebKit/605.1.15 (KHTML, like Gecko) Version/16.1 Safari/605.1.15","Macintosh","Safari","16.1","OS X","10_15_7","null","null","","<p style=""font-size : 48px"">+</p>","","filler","","",""
"","","","","","picture","81199","image-keyboard-response","200","179172","0.0-6.0-3.43","4","1","2022-11-11 20:56:30","5e9f10ee8cf4e9417ddb2c8afee766bf","139.140.208.169","Mozilla/5.0 (Macintosh; Intel Mac OS X 10_15_7) AppleWebKit/605.1.15 (KHTML, like Gecko) Version/16.1 Safari/605.1.15","Macintosh","Safari","16.1","OS X","10_15_7","986","l","","pencil.jpeg","","filler","","true",""
"","","","","","fixation","81199","html-keyboard-response","201","180179","0.0-6.0-0.44","4","1","2022-11-11 20:56:30","5e9f10ee8cf4e9417ddb2c8afee766bf","139.140.208.169","Mozilla/5.0 (Macintosh; Intel Mac OS X 10_15_7) AppleWebKit/605.1.15 (KHTML, like Gecko) Version/16.1 Safari/605.1.15","Macintosh","Safari","16.1","OS X","10_15_7","null","null","","<p style=""font-size : 48px"">+</p>","","filler","","",""
"","","","","","sentence","81199","html-keyboard-response","202","180877","0.0-6.0-1.44","4","1","2022-11-11 20:56:30","5e9f10ee8cf4e9417ddb2c8afee766bf","139.140.208.169","Mozilla/5.0 (Macintosh; Intel Mac OS X 10_15_7) AppleWebKit/605.1.15 (KHTML, like Gecko) Version/16.1 Safari/605.1.15","Macintosh","Safari","16.1","OS X","10_15_7","690"," ","","You look at lettuce.","","filler","","",""
"","","","","","fixation","81199","html-keyboard-response","203","181385","0.0-6.0-2.44","4","1","2022-11-11 20:56:30","5e9f10ee8cf4e9417ddb2c8afee766bf","139.140.208.169","Mozilla/5.0 (Macintosh; Intel Mac OS X 10_15_7) AppleWebKit/605.1.15 (KHTML, like Gecko) Version/16.1 Safari/605.1.15","Macintosh","Safari","16.1","OS X","10_15_7","null","null","","<p style=""font-size : 48px"">+</p>","","filler","","",""
"","","","","","picture","81199","image-keyboard-response","204","182248","0.0-6.0-3.44","4","1","2022-11-11 20:56:30","5e9f10ee8cf4e9417ddb2c8afee766bf","139.140.208.169","Mozilla/5.0 (Macintosh; Intel Mac OS X 10_15_7) AppleWebKit/605.1.15 (KHTML, like Gecko) Version/16.1 Safari/605.1.15","Macintosh","Safari","16.1","OS X","10_15_7","751","l","","fries.jpeg","","filler","","true",""
"","","","","","fixation","81199","html-keyboard-response","205","183253","0.0-6.0-0.45","4","1","2022-11-11 20:56:30","5e9f10ee8cf4e9417ddb2c8afee766bf","139.140.208.169","Mozilla/5.0 (Macintosh; Intel Mac OS X 10_15_7) AppleWebKit/605.1.15 (KHTML, like Gecko) Version/16.1 Safari/605.1.15","Macintosh","Safari","16.1","OS X","10_15_7","null","null","","<p style=""font-size : 48px"">+</p>","","filler","","",""
"","","","","","sentence","81199","html-keyboard-response","206","184138","0.0-6.0-1.45","4","1","2022-11-11 20:56:30","5e9f10ee8cf4e9417ddb2c8afee766bf","139.140.208.169","Mozilla/5.0 (Macintosh; Intel Mac OS X 10_15_7) AppleWebKit/605.1.15 (KHTML, like Gecko) Version/16.1 Safari/605.1.15","Macintosh","Safari","16.1","OS X","10_15_7","877"," ","","You look at a sponge.","","filler","","",""
"","","","","","fixation","81199","html-keyboard-response","207","184644","0.0-6.0-2.45","4","1","2022-11-11 20:56:30","5e9f10ee8cf4e9417ddb2c8afee766bf","139.140.208.169","Mozilla/5.0 (Macintosh; Intel Mac OS X 10_15_7) AppleWebKit/605.1.15 (KHTML, like Gecko) Version/16.1 Safari/605.1.15","Macintosh","Safari","16.1","OS X","10_15_7","null","null","","<p style=""font-size : 48px"">+</p>","","filler","","",""
"","","","","","picture","81199","image-keyboard-response","208","185492","0.0-6.0-3.45","4","1","2022-11-11 20:56:30","5e9f10ee8cf4e9417ddb2c8afee766bf","139.140.208.169","Mozilla/5.0 (Macintosh; Intel Mac OS X 10_15_7) AppleWebKit/605.1.15 (KHTML, like Gecko) Version/16.1 Safari/605.1.15","Macintosh","Safari","16.1","OS X","10_15_7","756","l","","coat.jpeg","","filler","","true",""
"","","","","","fixation","81199","html-keyboard-response","209","186498","0.0-6.0-0.46","4","1","2022-11-11 20:56:30","5e9f10ee8cf4e9417ddb2c8afee766bf","139.140.208.169","Mozilla/5.0 (Macintosh; Intel Mac OS X 10_15_7) AppleWebKit/605.1.15 (KHTML, like Gecko) Version/16.1 Safari/605.1.15","Macintosh","Safari","16.1","OS X","10_15_7","null","null","","<p style=""font-size : 48px"">+</p>","","neutral-slice","","",""
"","","","","","sentence","81199","html-keyboard-response","210","188857","0.0-6.0-1.46","4","1","2022-11-11 20:56:30","5e9f10ee8cf4e9417ddb2c8afee766bf","139.140.208.169","Mozilla/5.0 (Macintosh; Intel Mac OS X 10_15_7) AppleWebKit/605.1.15 (KHTML, like Gecko) Version/16.1 Safari/605.1.15","Macintosh","Safari","16.1","OS X","10_15_7","2353"," ","","Someone places an onion in front of you.","","neutral-slice","","",""
"","","","","","fixation","81199","html-keyboard-response","211","189366","0.0-6.0-2.46","4","1","2022-11-11 20:56:30","5e9f10ee8cf4e9417ddb2c8afee766bf","139.140.208.169","Mozilla/5.0 (Macintosh; Intel Mac OS X 10_15_7) AppleWebKit/605.1.15 (KHTML, like Gecko) Version/16.1 Safari/605.1.15","Macintosh","Safari","16.1","OS X","10_15_7","null","null","","<p style=""font-size : 48px"">+</p>","","neutral-slice","","",""
"","","","","","picture","81199","image-keyboard-response","212","190235","0.0-6.0-3.46","4","1","2022-11-11 20:56:30","5e9f10ee8cf4e9417ddb2c8afee766bf","139.140.208.169","Mozilla/5.0 (Macintosh; Intel Mac OS X 10_15_7) AppleWebKit/605.1.15 (KHTML, like Gecko) Version/16.1 Safari/605.1.15","Macintosh","Safari","16.1","OS X","10_15_7","738","a","","onion_slice.jpeg","","neutral-slice","","true",""
"","","","","","fixation","81199","html-keyboard-response","213","191242","0.0-6.0-0.47","4","1","2022-11-11 20:56:30","5e9f10ee8cf4e9417ddb2c8afee766bf","139.140.208.169","Mozilla/5.0 (Macintosh; Intel Mac OS X 10_15_7) AppleWebKit/605.1.15 (KHTML, like Gecko) Version/16.1 Safari/605.1.15","Macintosh","Safari","16.1","OS X","10_15_7","null","null","","<p style=""font-size : 48px"">+</p>","","neutral-slice","","",""
"","","","","","sentence","81199","html-keyboard-response","214","191726","0.0-6.0-1.47","4","1","2022-11-11 20:56:30","5e9f10ee8cf4e9417ddb2c8afee766bf","139.140.208.169","Mozilla/5.0 (Macintosh; Intel Mac OS X 10_15_7) AppleWebKit/605.1.15 (KHTML, like Gecko) Version/16.1 Safari/605.1.15","Macintosh","Safari","16.1","OS X","10_15_7","477"," ","","Someone places a melon in front of you.","","neutral-slice","","",""
"","","","","","fixation","81199","html-keyboard-response","215","192241","0.0-6.0-2.47","4","1","2022-11-11 20:56:30","5e9f10ee8cf4e9417ddb2c8afee766bf","139.140.208.169","Mozilla/5.0 (Macintosh; Intel Mac OS X 10_15_7) AppleWebKit/605.1.15 (KHTML, like Gecko) Version/16.1 Safari/605.1.15","Macintosh","Safari","16.1","OS X","10_15_7","null","null","","<p style=""font-size : 48px"">+</p>","","neutral-slice","","",""
"","","","","","picture","81199","image-keyboard-response","216","193559","0.0-6.0-3.47","4","1","2022-11-11 20:56:30","5e9f10ee8cf4e9417ddb2c8afee766bf","139.140.208.169","Mozilla/5.0 (Macintosh; Intel Mac OS X 10_15_7) AppleWebKit/605.1.15 (KHTML, like Gecko) Version/16.1 Safari/605.1.15","Macintosh","Safari","16.1","OS X","10_15_7","1222","l","","melon_slice.jpeg","","neutral-slice","","false",""
"","","","","","fixation","81199","html-keyboard-response","217","194571","0.0-6.0-0.48","4","1","2022-11-11 20:56:30","5e9f10ee8cf4e9417ddb2c8afee766bf","139.140.208.169","Mozilla/5.0 (Macintosh; Intel Mac OS X 10_15_7) AppleWebKit/605.1.15 (KHTML, like Gecko) Version/16.1 Safari/605.1.15","Macintosh","Safari","16.1","OS X","10_15_7","null","null","","<p style=""font-size : 48px"">+</p>","","filler","","",""
"","","","","","sentence","81199","html-keyboard-response","218","195178","0.0-6.0-1.48","4","1","2022-11-11 20:56:30","5e9f10ee8cf4e9417ddb2c8afee766bf","139.140.208.169","Mozilla/5.0 (Macintosh; Intel Mac OS X 10_15_7) AppleWebKit/605.1.15 (KHTML, like Gecko) Version/16.1 Safari/605.1.15","Macintosh","Safari","16.1","OS X","10_15_7","601"," ","","You look at a beanbag.","","filler","","",""
"","","","","","fixation","81199","html-keyboard-response","219","195685","0.0-6.0-2.48","4","1","2022-11-11 20:56:30","5e9f10ee8cf4e9417ddb2c8afee766bf","139.140.208.169","Mozilla/5.0 (Macintosh; Intel Mac OS X 10_15_7) AppleWebKit/605.1.15 (KHTML, like Gecko) Version/16.1 Safari/605.1.15","Macintosh","Safari","16.1","OS X","10_15_7","null","null","","<p style=""font-size : 48px"">+</p>","","filler","","",""
"","","","","","picture","81199","image-keyboard-response","220","197512","0.0-6.0-3.48","4","1","2022-11-11 20:56:30","5e9f10ee8cf4e9417ddb2c8afee766bf","139.140.208.169","Mozilla/5.0 (Macintosh; Intel Mac OS X 10_15_7) AppleWebKit/605.1.15 (KHTML, like Gecko) Version/16.1 Safari/605.1.15","Macintosh","Safari","16.1","OS X","10_15_7","1735","l","","phone.jpeg","","filler","","true",""
"","","","","","fixation","81199","html-keyboard-response","221","198519","0.0-6.0-0.49","4","1","2022-11-11 20:56:30","5e9f10ee8cf4e9417ddb2c8afee766bf","139.140.208.169","Mozilla/5.0 (Macintosh; Intel Mac OS X 10_15_7) AppleWebKit/605.1.15 (KHTML, like Gecko) Version/16.1 Safari/605.1.15","Macintosh","Safari","16.1","OS X","10_15_7","null","null","","<p style=""font-size : 48px"">+</p>","","filler","","",""
"","","","","","sentence","81199","html-keyboard-response","222","200209","0.0-6.0-1.49","4","1","2022-11-11 20:56:30","5e9f10ee8cf4e9417ddb2c8afee766bf","139.140.208.169","Mozilla/5.0 (Macintosh; Intel Mac OS X 10_15_7) AppleWebKit/605.1.15 (KHTML, like Gecko) Version/16.1 Safari/605.1.15","Macintosh","Safari","16.1","OS X","10_15_7","1684"," ","","You look at a camera.","","filler","","",""
"","","","","","fixation","81199","html-keyboard-response","223","200715","0.0-6.0-2.49","4","1","2022-11-11 20:56:30","5e9f10ee8cf4e9417ddb2c8afee766bf","139.140.208.169","Mozilla/5.0 (Macintosh; Intel Mac OS X 10_15_7) AppleWebKit/605.1.15 (KHTML, like Gecko) Version/16.1 Safari/605.1.15","Macintosh","Safari","16.1","OS X","10_15_7","null","null","","<p style=""font-size : 48px"">+</p>","","filler","","",""
"","","","","","picture","81199","image-keyboard-response","224","201191","0.0-6.0-3.49","4","1","2022-11-11 20:56:30","5e9f10ee8cf4e9417ddb2c8afee766bf","139.140.208.169","Mozilla/5.0 (Macintosh; Intel Mac OS X 10_15_7) AppleWebKit/605.1.15 (KHTML, like Gecko) Version/16.1 Safari/605.1.15","Macintosh","Safari","16.1","OS X","10_15_7","396","l","","tennisball.jpeg","","filler","","true",""
"","","","","","fixation","81199","html-keyboard-response","225","202199","0.0-6.0-0.50","4","1","2022-11-11 20:56:30","5e9f10ee8cf4e9417ddb2c8afee766bf","139.140.208.169","Mozilla/5.0 (Macintosh; Intel Mac OS X 10_15_7) AppleWebKit/605.1.15 (KHTML, like Gecko) Version/16.1 Safari/605.1.15","Macintosh","Safari","16.1","OS X","10_15_7","null","null","","<p style=""font-size : 48px"">+</p>","","modified-whole","","",""
"","","","","","sentence","81199","html-keyboard-response","226","202777","0.0-6.0-1.50","4","1","2022-11-11 20:56:30","5e9f10ee8cf4e9417ddb2c8afee766bf","139.140.208.169","Mozilla/5.0 (Macintosh; Intel Mac OS X 10_15_7) AppleWebKit/605.1.15 (KHTML, like Gecko) Version/16.1 Safari/605.1.15","Macintosh","Safari","16.1","OS X","10_15_7","571"," ","","Someone slices an orange in front of you.","","modified-whole","","",""
"","","","","","fixation","81199","html-keyboard-response","227","203284","0.0-6.0-2.50","4","1","2022-11-11 20:56:30","5e9f10ee8cf4e9417ddb2c8afee766bf","139.140.208.169","Mozilla/5.0 (Macintosh; Intel Mac OS X 10_15_7) AppleWebKit/605.1.15 (KHTML, like Gecko) Version/16.1 Safari/605.1.15","Macintosh","Safari","16.1","OS X","10_15_7","null","null","","<p style=""font-size : 48px"">+</p>","","modified-whole","","",""
"","","","","","picture","81199","image-keyboard-response","228","203832","0.0-6.0-3.50","4","1","2022-11-11 20:56:30","5e9f10ee8cf4e9417ddb2c8afee766bf","139.140.208.169","Mozilla/5.0 (Macintosh; Intel Mac OS X 10_15_7) AppleWebKit/605.1.15 (KHTML, like Gecko) Version/16.1 Safari/605.1.15","Macintosh","Safari","16.1","OS X","10_15_7","455","a","","orange_whole.jpeg","","modified-whole","","true",""
"","","","","","fixation","81199","html-keyboard-response","229","204840","0.0-6.0-0.51","4","1","2022-11-11 20:56:30","5e9f10ee8cf4e9417ddb2c8afee766bf","139.140.208.169","Mozilla/5.0 (Macintosh; Intel Mac OS X 10_15_7) AppleWebKit/605.1.15 (KHTML, like Gecko) Version/16.1 Safari/605.1.15","Macintosh","Safari","16.1","OS X","10_15_7","null","null","","<p style=""font-size : 48px"">+</p>","","filler","","",""
"","","","","","sentence","81199","html-keyboard-response","230","205205","0.0-6.0-1.51","4","1","2022-11-11 20:56:30","5e9f10ee8cf4e9417ddb2c8afee766bf","139.140.208.169","Mozilla/5.0 (Macintosh; Intel Mac OS X 10_15_7) AppleWebKit/605.1.15 (KHTML, like Gecko) Version/16.1 Safari/605.1.15","Macintosh","Safari","16.1","OS X","10_15_7","359"," ","","You look at applesauce.","","filler","","",""
"","","","","","fixation","81199","html-keyboard-response","231","205712","0.0-6.0-2.51","4","1","2022-11-11 20:56:30","5e9f10ee8cf4e9417ddb2c8afee766bf","139.140.208.169","Mozilla/5.0 (Macintosh; Intel Mac OS X 10_15_7) AppleWebKit/605.1.15 (KHTML, like Gecko) Version/16.1 Safari/605.1.15","Macintosh","Safari","16.1","OS X","10_15_7","null","null","","<p style=""font-size : 48px"">+</p>","","filler","","",""
"","","","","","picture","81199","image-keyboard-response","232","206414","0.0-6.0-3.51","4","1","2022-11-11 20:56:30","5e9f10ee8cf4e9417ddb2c8afee766bf","139.140.208.169","Mozilla/5.0 (Macintosh; Intel Mac OS X 10_15_7) AppleWebKit/605.1.15 (KHTML, like Gecko) Version/16.1 Safari/605.1.15","Macintosh","Safari","16.1","OS X","10_15_7","638","l","","sushi.jpeg","","filler","","true",""
"","","","","","fixation","81199","html-keyboard-response","233","207425","0.0-6.0-0.52","4","1","2022-11-11 20:56:30","5e9f10ee8cf4e9417ddb2c8afee766bf","139.140.208.169","Mozilla/5.0 (Macintosh; Intel Mac OS X 10_15_7) AppleWebKit/605.1.15 (KHTML, like Gecko) Version/16.1 Safari/605.1.15","Macintosh","Safari","16.1","OS X","10_15_7","null","null","","<p style=""font-size : 48px"">+</p>","","modified-whole","","",""
"","","","","","sentence","81199","html-keyboard-response","234","207920","0.0-6.0-1.52","4","1","2022-11-11 20:56:30","5e9f10ee8cf4e9417ddb2c8afee766bf","139.140.208.169","Mozilla/5.0 (Macintosh; Intel Mac OS X 10_15_7) AppleWebKit/605.1.15 (KHTML, like Gecko) Version/16.1 Safari/605.1.15","Macintosh","Safari","16.1","OS X","10_15_7","488"," ","","Someone slices a steak in front of you.","","modified-whole","","",""
"","","","","","fixation","81199","html-keyboard-response","235","208427","0.0-6.0-2.52","4","1","2022-11-11 20:56:30","5e9f10ee8cf4e9417ddb2c8afee766bf","139.140.208.169","Mozilla/5.0 (Macintosh; Intel Mac OS X 10_15_7) AppleWebKit/605.1.15 (KHTML, like Gecko) Version/16.1 Safari/605.1.15","Macintosh","Safari","16.1","OS X","10_15_7","null","null","","<p style=""font-size : 48px"">+</p>","","modified-whole","","",""
"","","","","","picture","81199","image-keyboard-response","236","209062","0.0-6.0-3.52","4","1","2022-11-11 20:56:30","5e9f10ee8cf4e9417ddb2c8afee766bf","139.140.208.169","Mozilla/5.0 (Macintosh; Intel Mac OS X 10_15_7) AppleWebKit/605.1.15 (KHTML, like Gecko) Version/16.1 Safari/605.1.15","Macintosh","Safari","16.1","OS X","10_15_7","537","l","","steak_whole.jpeg","","modified-whole","","false",""
"","","","","","fixation","81199","html-keyboard-response","237","210070","0.0-6.0-0.53","4","1","2022-11-11 20:56:30","5e9f10ee8cf4e9417ddb2c8afee766bf","139.140.208.169","Mozilla/5.0 (Macintosh; Intel Mac OS X 10_15_7) AppleWebKit/605.1.15 (KHTML, like Gecko) Version/16.1 Safari/605.1.15","Macintosh","Safari","16.1","OS X","10_15_7","null","null","","<p style=""font-size : 48px"">+</p>","","filler","","",""
"","","","","","sentence","81199","html-keyboard-response","238","210387","0.0-6.0-1.53","4","1","2022-11-11 20:56:30","5e9f10ee8cf4e9417ddb2c8afee766bf","139.140.208.169","Mozilla/5.0 (Macintosh; Intel Mac OS X 10_15_7) AppleWebKit/605.1.15 (KHTML, like Gecko) Version/16.1 Safari/605.1.15","Macintosh","Safari","16.1","OS X","10_15_7","307"," ","","You look at a ring.","","filler","","",""
"","","","","","fixation","81199","html-keyboard-response","239","210894","0.0-6.0-2.53","4","1","2022-11-11 20:56:30","5e9f10ee8cf4e9417ddb2c8afee766bf","139.140.208.169","Mozilla/5.0 (Macintosh; Intel Mac OS X 10_15_7) AppleWebKit/605.1.15 (KHTML, like Gecko) Version/16.1 Safari/605.1.15","Macintosh","Safari","16.1","OS X","10_15_7","null","null","","<p style=""font-size : 48px"">+</p>","","filler","","",""
